index,run,trial,onset,duration,cond,repType,repCount,word,pic,resp,respRT,ISIresp,ISIrespRT
1,1,1,10.0034,1.9991,WO,4,1,BANDIT,bayou,R,1.4169,NR,3.0000
2,1,2,22.0630,-10.0623,WI,2,1,ASPARAGUS,pulpit,UR,1.9940,NR,3.0000
3,1,3,34.1161,-22.1144,WO,2,1,BUTTER,butte,R,1.8813,NR,3.0000
4,1,4,46.1724,-34.1702,WI,4,1,TROLLEY,shoe_shop,NR,999.0000,NR,3.0000
5,1,5,58.2285,-46.2271,WI,4,1,STOMACH,diner,R,1.7692,NR,3.0000
6,1,6,70.2843,-58.2828,WI,2,1,YACHT,ice_skating_rink,NR,999.0000,R,3.0323
7,1,7,82.3397,-70.3379,WO,4,1,MEDICINE,palace,UR,2.2213,NR,3.0000
8,1,8,94.3955,-82.3940,WO,4,2,BANDIT,bayou,R,1.7232,NR,3.0000
9,1,9,106.4517,-94.4490,WI,4,1,TURTLE,volleyball_court,R,1.9376,NR,3.0000
10,1,10,118.5083,-106.5068,WO,2,1,ARROW,canyon,R,2.9505,NR,3.0000
11,1,11,130.5642,-118.5633,WI,2,1,WITCH,restaurant,R,1.8129,NR,3.0000
12,1,12,142.6190,-130.6178,WO,4,1,NOODLE,barn,R,2.5466,NR,3.0000
13,1,13,154.6744,-142.6725,WO,4,1,RAKE,manufactured_home,R,1.3270,NR,3.0000
14,1,14,166.7308,-154.7301,WI,4,2,STOMACH,diner,R,1.8864,NR,3.0000
15,1,15,178.7854,-166.7841,WO,4,1,MUSTARD,ruin,UR,2.0738,NR,3.0000
16,1,16,190.8416,-178.8401,WI,4,2,TROLLEY,shoe_shop,NR,999.0000,NR,3.0000
17,1,17,202.8970,-190.8950,WO,4,2,MUSTARD,ruin,R,2.4231,NR,3.0000
18,1,18,214.9531,-202.9509,WO,4,1,GOAT,power_plant,UR,2.1630,NR,3.0000
19,1,19,227.0091,-215.0080,WI,4,1,FLASK,living_room,R,2.5932,NR,3.0000
20,1,20,239.0644,-227.0624,WO,4,2,MEDICINE,palace,UR,2.4076,NR,3.0000
21,1,21,251.1215,-239.1197,WI,2,1,HELMET,parking_garage,R,2.7732,NR,3.0000
22,1,22,263.1773,-251.1757,WI,2,1,BOAT,lobby,UR,1.9531,NR,3.0000
23,1,23,275.2329,-263.2315,WI,4,1,SUNBURN,drugstore,R,1.8813,NR,3.0000
24,1,24,287.2889,-275.2872,WO,2,1,MOON,corn_field,R,2.5574,NR,3.0000
25,1,25,299.3448,-287.3432,WI,4,1,PIE,locker_room,UR,2.7638,NR,3.0000
26,1,26,311.4012,-299.4001,WI,2,1,STAPLER,garage,R,2.8339,NR,3.0000
27,1,27,323.4566,-311.4559,WO,2,1,BOOT,amphitheater,UR,2.8537,NR,3.0000
28,1,28,335.5113,-323.5103,WI,4,2,TURTLE,volleyball_court,R,1.8998,NR,3.0000
29,1,29,347.5668,-335.5650,WI,4,2,FLASK,living_room,R,1.2690,NR,3.0000
30,1,30,359.6226,-347.6206,WO,2,1,SALAD,ocean,R,2.6884,NR,3.0000
31,1,31,371.6795,-359.6774,WI,4,1,CAMERA,operating_room,R,2.5607,NR,3.0000
32,1,32,383.7356,-371.7349,WO,4,2,GOAT,power_plant,NR,999.0000,R,3.2138
33,1,33,395.7906,-383.7886,WO,2,1,WINE,iceberg,R,2.2444,NR,3.0000
34,1,34,407.8474,-395.8461,WO,4,1,MOUSE,badlands,NR,999.0000,UR,3.2865
35,1,35,419.9029,-407.9017,WI,4,2,CAMERA,operating_room,R,0.9813,NR,3.0000
36,1,36,431.9588,-419.9577,WO,4,2,MOUSE,badlands,R,1.4726,NR,3.0000
37,1,37,444.0143,-432.0129,WI,4,2,SUNBURN,drugstore,R,1.2881,NR,3.0000
38,1,38,456.0700,-444.0682,WI,4,2,PIE,locker_room,R,1.5307,NR,3.0000
39,1,39,468.1267,-456.1249,WO,2,1,PASSPORT,bullring,R,2.3550,NR,3.0000
40,1,40,480.1829,-468.1817,WO,4,2,RAKE,manufactured_home,R,1.8964,NR,3.0000
41,1,41,492.2390,-480.2378,WI,2,1,TRIBE,elevator,NR,999.0000,UR,3.0791
42,1,42,504.2945,-492.2922,WO,4,2,NOODLE,barn,R,1.4043,NR,3.0000
43,2,19,10.0021,1.9987,WI,2,1,CRAB,riding_arena,UR,1.7714,NR,3.0000
44,2,20,22.0737,-10.0714,WI,2,1,APPLE,music_store,UR,2.2327,NR,3.0000
45,2,21,34.1441,-22.1429,WO,4,1,POSTER,cemetery,R,1.7854,NR,3.0000
46,2,22,46.2135,-34.2124,WO,4,1,BLANKET,promenade_deck,R,2.1875,NR,3.0000
47,2,23,58.2829,-46.2821,WI,4,1,PENCIL,galley,NR,999.0000,R,3.3517
48,2,24,70.3527,-58.3512,WO,2,1,BIBLE,market,R,2.0143,NR,3.0000
49,2,25,82.4226,-70.4207,WO,4,1,RING,bamboo_forest,R,1.8990,NR,3.0000
50,2,26,94.4927,-82.4920,WO,4,1,SCORPION,marsh,R,2.1151,NR,3.0000
51,2,27,106.5623,-94.5612,WI,4,1,OWL,bedroom,NR,999.0000,UR,3.2420
52,2,28,118.6315,-106.6294,WO,4,1,SCOTCH,formal_garden,R,2.1059,NR,3.0000
53,2,29,130.7027,-118.7014,WI,4,1,FAN,bazaar,R,2.5432,NR,3.0000
54,2,30,142.7724,-130.7712,WO,2,1,WHIP,arch,UR,1.9249,NR,3.0000
55,2,31,154.8420,-142.8411,WO,2,1,HONEY,herb_garden,R,2.6375,NR,3.0000
56,2,32,166.9116,-154.9086,WI,4,1,MAGICIAN,kennel,UR,2.6442,NR,3.0000
57,2,33,178.9840,-166.9822,WI,4,1,LIME,florist_shop,NR,999.0000,UR,3.2104
58,2,34,191.0542,-179.0521,WO,2,1,JUGGLER,heliport,R,1.7243,NR,3.0000
59,2,35,203.1247,-191.1230,WO,4,2,BLANKET,promenade_deck,R,1.1618,NR,3.0000
60,2,36,215.1946,-203.1936,WI,4,2,PENCIL,galley,R,1.5433,NR,3.0000
61,2,37,227.2646,-215.2624,WO,2,1,CHERRY,ice_floe,NR,999.0000,NR,3.0000
62,2,38,239.3353,-227.3331,WI,2,1,MAP,cathedral,R,1.6573,NR,3.0000
63,2,39,251.4064,-239.4056,WO,2,1,SCISSORS,observatory,R,2.7786,NR,3.0000
64,2,40,263.4759,-251.4749,WI,2,1,LION,courtroom,R,2.1045,NR,3.0000
65,2,41,275.5454,-263.5435,WI,2,1,SOAP,playroom,R,2.3604,NR,3.0000
66,2,42,287.6164,-275.6152,WO,2,1,BOWL,lock_chamber,NR,999.0000,UR,3.0108
67,2,43,299.6860,-287.6840,WO,4,2,SCOTCH,formal_garden,R,1.4229,NR,3.0000
68,2,44,311.7566,-299.7550,WI,4,1,KEG,throne_room,R,2.3535,NR,3.0000
69,2,45,323.8268,-311.8249,WI,4,2,MAGICIAN,kennel,R,1.8730,NR,3.0000
70,2,46,335.8972,-323.8951,WO,4,1,CARROT,campsite,R,2.9586,NR,3.0000
71,2,47,347.9685,-335.9669,WO,4,2,RING,bamboo_forest,R,1.4176,NR,3.0000
72,2,48,360.0387,-348.0374,WI,4,2,OWL,bedroom,UR,1.9814,NR,3.0000
73,2,49,372.1092,-360.1082,WO,4,2,CARROT,campsite,R,0.9543,NR,3.0000
74,2,50,384.1796,-372.1787,WI,4,1,MOTH,subway_interior,NR,999.0000,R,3.2008
75,2,51,396.2490,-384.2475,WI,2,1,POWDER,assembly_line,UR,1.6861,NR,3.0000
76,2,52,408.3197,-396.3179,WI,4,2,KEG,throne_room,R,1.1291,NR,3.0000
77,2,53,420.3903,-408.3892,WO,4,2,POSTER,cemetery,R,1.2946,NR,3.0000
78,2,54,432.4606,-420.4592,WO,4,2,SCORPION,marsh,R,1.2962,NR,3.0000
79,2,55,444.5306,-432.5286,WI,4,2,FAN,bazaar,R,1.7790,NR,3.0000
80,2,56,456.6010,-444.6002,WI,4,2,LIME,florist_shop,NR,999.0000,NR,3.0000
81,2,57,468.6711,-456.6690,WO,4,1,NAPKIN,gazebo,R,2.1371,NR,3.0000
82,2,58,480.7418,-468.7399,WI,4,2,MOTH,subway_interior,R,1.2339,NR,3.0000
83,2,59,492.8127,-480.8104,WO,4,2,NAPKIN,gazebo,R,1.2320,NR,3.0000
84,2,60,504.8836,-492.8827,WI,2,1,EYE,cubicle,R,2.7663,NR,3.0000
85,3,37,151.6913,-139.6903,WO,2,1,SHOVEL,nuclear_power_plant,R,1.5393,NR,3.0000
86,3,38,163.7506,-151.7499,WI,2,1,CANE,banquet_hall,NR,999.0000,R,3.0521
87,3,39,175.8075,-163.8066,WI,4,1,SPONGE,office,R,1.8044,NR,3.0000
88,3,40,187.8654,-175.8643,WI,2,1,SCREWDRIVER,gymnasium,R,1.9000,NR,3.0000
89,3,41,199.9231,-187.9221,WO,4,1,DUST,crevasse,UR,1.9674,NR,3.0000
90,3,42,211.9810,-199.9790,WI,4,1,BRAIN,parlor,R,2.5782,NR,3.0000
91,3,43,224.0396,-212.0383,WO,2,1,TULIP,playground,R,2.5914,NR,3.0000
92,3,44,236.0973,-224.0961,WI,4,2,BRAIN,parlor,R,2.0160,NR,3.0000
93,3,45,248.1556,-236.1546,WI,4,1,CANARY,casino,NR,999.0000,NR,3.0000
94,3,46,260.2132,-248.2109,WO,4,1,FIDDLE,moat,R,1.5145,NR,3.0000
95,3,47,272.2726,-260.2707,WI,4,1,SAIL,reception,UR,1.9376,NR,3.0000
96,3,48,284.3312,-272.3303,WO,4,1,HARPOON,forest_path,UR,2.9031,NR,3.0000
97,3,49,296.3886,-284.3873,WO,2,1,TROPHY,ice_shelf,R,2.4538,NR,3.0000
98,3,50,308.4469,-296.4456,WI,2,1,SEAWEED,dining_room,R,2.5541,NR,3.0000
99,3,51,320.5048,-308.5038,WO,4,1,DOUGHNUT,fire_escape,NR,999.0000,R,3.1148
100,3,52,332.5628,-320.5615,WI,4,2,SAIL,reception,UR,1.8759,NR,3.0000
101,3,53,344.6207,-332.6189,WO,2,1,SLIPPER,lift_bridge,UR,2.9436,NR,3.0000
102,3,54,356.6790,-344.6781,WO,4,2,HARPOON,forest_path,UR,1.5966,NR,3.0000
103,3,55,368.7369,-356.7355,WO,4,2,FIDDLE,moat,R,0.9049,NR,3.0000
104,3,56,380.7949,-368.7934,WI,2,1,CUCUMBER,computer_room,R,2.3053,NR,3.0000
105,3,57,392.8527,-380.8513,WI,4,1,THONG,squash_court,R,2.8062,NR,3.0000
106,3,58,404.9107,-392.9100,WI,4,1,BRACELET,limousine_interior,NR,999.0000,NR,3.0000
107,3,59,416.9681,-404.9666,WO,4,1,CLAM,cabin,R,1.6580,NR,3.0000
108,3,60,429.0267,-417.0245,WI,4,1,RIFLE,supermarket,R,1.6403,NR,3.0000
109,3,61,441.0857,-429.0839,WO,4,2,CLAM,cabin,R,1.2938,NR,3.0000
110,3,62,453.1445,-441.1425,WI,2,1,PUDDLE,hospital_room,R,2.2114,NR,3.0000
111,3,63,465.2032,-453.2016,WO,4,1,MUSSEL,aqueduct,R,2.4703,NR,3.0000
112,3,64,477.2613,-465.2596,WI,2,1,GLOBE,clothing_store,UR,2.4880,NR,3.0000
113,3,65,489.3204,-477.3182,WO,4,2,DOUGHNUT,fire_escape,R,2.2543,NR,3.0000
114,3,66,501.3793,-489.3780,WI,4,2,SPONGE,office,R,1.7522,NR,3.0000
115,3,67,513.4378,-501.4369,WO,4,2,DUST,crevasse,R,2.6632,NR,3.0000
116,3,68,525.4952,-513.4941,WO,4,1,ROCK,picnic_area,NR,999.0000,R,3.0950
117,3,69,537.5530,-525.5520,WI,4,2,CANARY,casino,R,1.4105,NR,3.0000
118,3,70,549.6111,-537.6092,WO,2,1,TOBACCO,fountain,UR,2.8814,NR,3.0000
119,3,71,561.6697,-549.6677,WI,2,1,BEAVER,hotel_room,R,1.6956,NR,3.0000
120,3,72,573.7292,-561.7283,WO,2,1,DRUG,cottage_garden,R,2.3570,NR,3.0000
121,3,73,585.7867,-573.7850,WO,2,1,SCOOTER,lighthouse,NR,999.0000,NR,3.0000
122,3,74,597.8449,-585.8436,WO,4,2,ROCK,picnic_area,R,1.1965,NR,3.0000
123,3,75,609.9035,-597.9014,WI,4,2,THONG,squash_court,R,1.8459,NR,3.0000
124,3,76,621.9624,-609.9607,WI,4,2,BRACELET,limousine_interior,R,2.8171,NR,3.0000
125,3,77,634.0213,-622.0196,WO,4,2,MUSSEL,aqueduct,NR,999.0000,R,3.3011
126,3,78,646.0805,-634.0796,WI,4,2,RIFLE,supermarket,R,1.6212,R,3.0169
127,4,55,10.0025,1.9985,WI,2,1,JACKET,stage,R,1.3914,NR,3.0000
128,4,56,22.0712,-10.0700,WI,4,1,DESK,ballroom,R,2.4918,NR,3.0000
129,4,57,34.1382,-22.1372,WO,4,1,TIGER,forest_needleleaf,R,2.7128,NR,3.0000
130,4,58,46.2044,-34.2023,WO,4,1,HAMMER,creek,NR,999.0000,NR,3.0000
131,4,59,58.2717,-46.2703,WO,4,1,TABLE,hot_spring,NR,999.0000,R,3.0613
132,4,60,70.3385,-58.3356,WI,4,1,WHEAT,childs_room,UR,1.9058,NR,3.0000
133,4,61,82.4068,-70.4061,WO,4,2,TIGER,forest_needleleaf,R,1.0115,NR,3.0000
134,4,62,94.4735,-82.4725,WI,4,2,WHEAT,childs_room,R,1.5728,NR,3.0000
135,4,63,106.5402,-94.5377,WI,4,1,GLOVE,sauna,R,2.2969,NR,3.0000
136,4,64,118.6065,-106.6046,WO,2,1,SNAIL,raceway,R,2.7345,NR,3.0000
137,4,65,130.6743,-118.6723,WO,2,1,CHOCOLATE,watering_hole,R,2.5550,NR,3.0000
138,4,66,142.7418,-130.7411,WO,2,1,CRADLE,park,R,2.8916,NR,3.0000
139,4,67,154.8088,-142.8075,WI,4,1,QUILL,tennis_court,NR,999.0000,NR,3.0000
140,4,68,166.8759,-154.8731,WI,2,1,LANTERN,kindergarden_classroom,UR,2.5897,UR,5.2417
141,4,69,178.9443,-166.9427,WO,4,1,RICE,basketball_court,NR,999.0000,NR,3.0000
142,4,70,191.0119,-179.0101,WI,4,2,QUILL,tennis_court,UR,1.5353,NR,3.0000
143,4,71,203.0792,-191.0770,WO,4,1,OYSTER,pond,R,1.9743,NR,3.0000
144,4,72,215.1474,-203.1452,WI,2,1,MILK,bathroom,R,2.2851,NR,3.0000
145,4,73,227.2151,-215.2127,WI,4,2,DESK,ballroom,R,1.5500,NR,3.0000
146,4,74,239.2829,-227.2811,WO,2,1,WAND,excavation,UR,2.4698,NR,3.0000
147,4,75,251.3504,-239.3493,WO,2,1,SHARK,carrousel,NR,999.0000,NR,3.0000
148,4,76,263.4171,-251.4153,WO,4,1,DOVE,landing_deck,UR,2.2263,NR,3.0000
149,4,77,275.4851,-263.4838,WI,4,1,LIGHTNING,laundromat,R,1.4476,NR,3.0000
150,4,78,287.5521,-275.5501,WI,2,1,KALE,natural_history_museum,R,2.3325,NR,3.0000
151,4,79,299.6195,-287.6182,WI,4,2,LIGHTNING,laundromat,R,1.4812,NR,3.0000
152,4,80,311.6870,-299.6848,WO,2,1,PANTS,outhouse,UR,1.5598,NR,3.0000
153,4,81,323.7548,-311.7525,WO,2,1,PENNY,driving_range,UR,2.4842,NR,3.0000
154,4,82,335.8231,-323.8211,WO,4,1,LETTUCE,phone_booth,UR,1.8670,NR,3.0000
155,4,83,347.8909,-335.8888,WI,2,1,FENCE,cockpit,UR,2.1283,NR,3.0000
156,4,84,359.9586,-347.9570,WI,4,2,GLOVE,sauna,R,1.5364,NR,3.0000
157,4,85,372.0266,-360.0244,WO,4,2,LETTUCE,phone_booth,NR,999.0000,NR,3.0000
158,4,86,384.0944,-372.0936,WI,4,1,TRAY,jail_cell,R,2.6955,NR,3.0000
159,4,87,396.1613,-384.1592,WI,4,1,PUMPKIN,ball_pit,NR,999.0000,NR,3.0000
160,4,88,408.2291,-396.2274,WO,4,2,HAMMER,creek,UR,1.7386,NR,3.0000
161,4,89,420.2965,-408.2942,WI,2,1,TOWEL,catacomb,UR,2.5906,NR,3.0000
162,4,90,432.3650,-420.3632,WO,4,2,OYSTER,pond,R,1.3141,NR,3.0000
163,4,91,444.4325,-432.4309,WI,4,2,PUMPKIN,ball_pit,R,1.4269,NR,3.0000
164,4,92,456.5003,-444.4980,WI,4,2,TRAY,jail_cell,R,0.9276,NR,3.0000
165,4,93,468.5683,-456.5674,WO,4,2,TABLE,hot_spring,R,1.9912,NR,3.0000
166,4,94,480.6347,-468.6335,WI,2,1,SCROLL,kitchenette,UR,2.5371,NR,3.0000
167,4,95,492.7021,-480.7013,WO,4,2,DOVE,landing_deck,R,1.4160,NR,3.0000
168,4,96,504.7686,-492.7675,WO,4,2,RICE,basketball_court,R,1.4921,NR,3.0000
169,5,73,10.0018,2.0003,WI,4,1,QUAIL,bowling_alley,NR,999.0000,NR,3.0000
170,5,74,22.0749,-10.0738,WI,4,2,QUAIL,bowling_alley,R,1.3683,NR,3.0000
171,5,75,34.1460,-22.1439,WO,2,1,ANT,house,UR,1.9637,NR,3.0000
172,5,76,46.2175,-34.2158,WI,4,1,BARREL,closet,UR,2.3124,NR,3.0000
173,5,77,58.2892,-46.2876,WO,2,1,CLARINET,hotel,R,1.7501,NR,3.0000
174,5,78,70.3599,-58.3584,WI,4,1,KILT,cloister,UR,2.5783,NR,3.0000
175,5,79,82.4309,-70.4288,WI,4,1,ICICLE,auditorium,UR,1.9525,NR,3.0000
176,5,80,94.5032,-82.5015,WO,2,1,CANDY,river,R,2.2457,NR,3.0000
177,5,81,106.5744,-94.5717,WO,4,1,PEARL,greenhouse,R,2.1166,NR,3.0000
178,5,82,118.6471,-106.6452,WI,2,1,ROSE,dentists_office,NR,2.2992,NR,3.0000
179,5,83,130.7187,-118.7170,WO,4,1,PIGEON,mountain_snowy,NR,1.8316,NR,3.0000
180,5,84,142.7900,-130.7890,WI,2,1,BAYONET,home_office,NR,999.0000,NR,3.0000
181,5,85,154.8612,-142.8598,WO,4,1,PASTE,mountain,R,1.2804,NR,3.0000
182,5,86,166.9319,-154.9307,WI,4,1,GEESE,museum,UR,1.6872,NR,3.0000
183,5,87,179.0034,-167.0019,WI,2,1,RABBIT,cafeteria,R,1.8486,NR,3.0000
184,5,88,191.0743,-179.0723,WO,4,1,ORNAMENT,islet,R,2.8800,NR,3.0000
185,5,89,203.1457,-191.1444,WI,4,1,BONE,chicken_coop,R,1.7033,NR,3.0000
186,5,90,215.2171,-203.2155,WI,2,1,CORAL,archive,UR,2.7750,NR,3.0000
187,5,91,227.2883,-215.2870,WO,4,2,PEARL,greenhouse,UR,1.9194,NR,3.0000
188,5,92,239.3597,-227.3575,WO,4,2,PASTE,mountain,R,1.3984,NR,3.0000
189,5,93,251.4316,-239.4305,WI,4,2,ICICLE,auditorium,UR,1.7050,NR,3.0000
190,5,94,263.5022,-251.5012,WO,4,1,BANANA,beach,UR,1.9984,UR,8.3106
191,5,95,275.5730,-263.5716,WI,4,1,CHEESE,dorm_room,R,1.8667,NR,3.0000
192,5,96,287.6440,-275.6432,WI,4,2,GEESE,museum,R,1.4887,NR,3.0000
193,5,97,299.7148,-287.7136,WO,4,2,PIGEON,mountain_snowy,R,1.3113,NR,3.0000
194,5,98,311.7857,-299.7846,WO,2,1,SEAL,hangar,R,2.2059,NR,3.0000
195,5,99,323.8565,-311.8551,WI,4,2,KILT,cloister,UR,1.7437,NR,3.0000
196,5,100,335.9284,-323.9272,WO,4,2,BANANA,beach,R,1.6336,NR,3.0000
197,5,101,347.9995,-335.9981,WO,2,1,SARDINE,basilica,R,2.9726,NR,3.0000
198,5,102,360.0711,-348.0691,WI,2,1,BROWNIE,badminton_court,UR,2.4245,NR,3.0000
199,5,103,372.1426,-360.1418,WO,4,1,MITTEN,oilrig,NR,999.0000,UR,3.3089
200,5,104,384.2131,-372.2114,WO,2,1,FORK,hayfield,NR,999.0000,NR,3.0000
201,5,105,396.2855,-384.2843,WO,4,1,HIGHWAY,corral,UR,2.5750,NR,3.0000
202,5,106,408.3565,-396.3545,WI,4,2,CHEESE,dorm_room,R,0.8441,NR,3.0000
203,5,107,420.4290,-408.4273,WO,2,1,OPIUM,field_wild,R,1.5392,NR,3.0000
204,5,108,432.5003,-420.4980,WI,2,1,BASKET,theater,R,2.6689,NR,3.0000
205,5,109,444.5723,-432.5713,WI,4,2,BARREL,closet,R,2.6323,NR,3.0000
206,5,110,456.6428,-444.6413,WI,4,2,BONE,chicken_coop,R,1.1985,NR,3.0000
207,5,111,468.7143,-456.7129,WO,4,2,ORNAMENT,islet,R,1.8224,NR,3.0000
208,5,112,480.7862,-468.7847,WI,2,1,LAMP,biology_laboratory,R,1.7443,NR,3.0000
209,5,113,492.8574,-480.8556,WO,4,2,HIGHWAY,corral,R,1.6236,NR,3.0000
210,5,114,504.9288,-492.9271,WO,4,2,MITTEN,oilrig,UR,1.9246,NR,3.0000
211,6,91,10.0020,2.0000,WI,4,1,ORCHID,music_studio,UR,1.9487,NR,3.0000
212,6,92,22.0667,-10.0657,WI,2,1,CLOAK,fastfood_restaurant,NR,999.0000,NR,3.0000
213,6,93,34.1294,-22.1281,WO,2,1,SPATULA,athletic_field,UR,1.8466,NR,3.0000
214,6,94,46.1921,-34.1905,WO,4,1,WALRUS,hot_tub,R,1.7730,NR,3.0000
215,6,95,58.2549,-46.2539,WO,4,1,DAISY,harbor,UR,2.0271,NR,3.0000
216,6,96,70.3179,-58.3171,WI,2,1,CROWN,bistro,UR,2.5680,NR,3.0000
217,6,97,82.3802,-70.3793,WO,4,1,BALLOON,canal,R,2.7635,NR,3.0000
218,6,98,94.4432,-82.4419,WI,4,1,SANDAL,kitchen,NR,999.0000,NR,3.0000
219,6,99,106.5058,-94.5036,WI,2,1,NIGHTGOWN,library,UR,2.4702,NR,3.0000
220,6,100,118.5693,-106.5679,WO,4,1,RUDDER,botanical_garden,R,2.5009,NR,3.0000
221,6,101,130.6327,-118.6309,WI,4,1,COFFEE,game_room,R,2.3449,NR,3.0000
222,6,102,142.6958,-130.6937,WO,2,1,SQUIRREL,igloo,NR,999.0000,NR,3.0000
223,6,103,154.7601,-142.7583,WO,2,1,PIANO,dam,R,2.7310,NR,3.0000
224,6,104,166.8234,-154.8225,WO,4,1,LAMB,rice_paddy,R,1.8664,NR,3.0000
225,6,105,178.8858,-166.8846,WI,4,1,HOOK,car_interior,UR,2.3273,NR,3.0000
226,6,106,190.9486,-178.9471,WI,4,2,SANDAL,kitchen,R,1.4366,NR,3.0000
227,6,107,203.0118,-191.0102,WI,4,2,COFFEE,game_room,R,2.9607,NR,3.0000
228,6,108,215.0753,-203.0740,WO,4,1,ZIPPER,boardwalk,NR,999.0000,UR,3.2397
229,6,109,227.1383,-215.1375,WI,2,1,PYTHON,athletic_field,R,2.3353,NR,3.0000
230,6,110,239.2006,-227.1995,WO,2,1,MUFFIN,kasbah,UR,2.4959,NR,3.0000
231,6,111,251.2636,-239.2613,WO,2,1,BABY,putting_green,R,1.5131,NR,3.0000
232,6,112,263.3274,-251.3261,WI,4,2,HOOK,car_interior,UR,1.5704,NR,3.0000
233,6,113,275.3906,-263.3884,WO,4,2,ZIPPER,boardwalk,UR,2.6011,NR,3.0000
234,6,114,287.4543,-275.4528,WI,4,1,KNIFE,attic,R,2.9353,NR,3.0000
235,6,115,299.5176,-287.5156,WI,2,1,RASH,aquarium,UR,2.5357,NR,3.0000
236,6,116,311.5820,-299.5812,WI,2,1,TORNADO,shopping_mall,UR,2.0774,NR,3.0000
237,6,117,323.6443,-311.6424,WO,4,2,LAMB,rice_paddy,R,1.0078,NR,3.0000
238,6,118,335.7083,-323.7064,WI,4,2,ORCHID,music_studio,NR,999.0000,UR,3.2744
239,6,119,347.7719,-335.7708,WO,4,2,RUDDER,botanical_garden,R,2.0045,NR,3.0000
240,6,120,359.8345,-347.8332,WO,4,2,DAISY,harbor,NR,999.0000,UR,3.2537
241,6,121,371.8974,-359.8958,WO,4,2,WALRUS,hot_tub,R,1.4202,NR,3.0000
242,6,122,383.9607,-371.9589,WI,4,1,SAXOPHONE,jewelry_shop,R,2.3246,NR,3.0000
243,6,123,396.0249,-384.0239,WO,4,1,ASPIRIN,bridge,R,2.6292,NR,3.0000
244,6,124,408.0880,-396.0862,WO,4,2,BALLOON,canal,R,1.3506,NR,3.0000
245,6,125,420.1521,-408.1505,WI,4,2,SAXOPHONE,jewelry_shop,R,2.2000,NR,3.0000
246,6,126,432.2157,-420.2137,WI,2,1,ROSARY,television_studio,NR,999.0000,NR,3.0000
247,6,127,444.2794,-432.2776,WO,4,2,ASPIRIN,bridge,R,1.3288,NR,3.0000
248,6,128,456.3435,-444.3427,WI,4,1,WALNUT,restaurant_kitchen,R,2.5762,NR,3.0000
249,6,129,468.4059,-456.4041,WO,2,1,NET,garbage_dump,NR,999.0000,NR,3.0000
250,6,130,480.4693,-468.4676,WI,4,2,WALNUT,restaurant_kitchen,R,1.1897,NR,3.0000
251,6,131,492.5334,-480.5324,WI,4,2,KNIFE,attic,R,1.7304,NR,3.0000
252,6,132,504.5962,-492.5942,WO,2,1,HOSE,boathouse,UR,2.7761,NR,3.0000
253,7,109,10.0019,2.0003,WO,4,3,GOAT,power_plant,R,1.6623,NR,3.0000
254,7,110,22.0648,-10.0636,WI,4,3,SUNBURN,drugstore,R,1.0664,NR,3.0000
255,7,111,34.1250,-22.1234,WI,4,3,CAMERA,operating_room,R,1.0571,NR,3.0000
256,7,112,46.1854,-34.1833,WI,4,3,PIE,locker_room,R,1.1673,NR,3.0000
257,7,113,58.2468,-46.2458,WO,4,3,BANDIT,bayou,R,1.2529,NR,3.0000
258,7,114,70.3067,-58.3045,WI,2,2,HELMET,parking_garage,R,0.9521,NR,3.0000
259,7,115,82.3677,-70.3662,WO,4,4,GOAT,power_plant,R,1.1995,NR,3.0000
260,7,116,94.4288,-82.4281,WI,4,3,FLASK,living_room,NR,999.0000,R,3.5823
261,7,117,106.4885,-94.4867,WO,4,3,MOUSE,badlands,R,1.9245,NR,3.0000
262,7,118,118.5498,-106.5482,WI,4,4,PIE,locker_room,R,0.7681,NR,3.0000
263,7,119,130.6106,-118.6088,WO,4,3,MEDICINE,palace,R,1.7137,NR,3.0000
264,7,120,142.6714,-130.6702,WI,4,3,TROLLEY,shoe_shop,R,1.5040,NR,3.0000
265,7,121,154.7320,-142.7300,WO,2,2,SALAD,ocean,R,1.5123,NR,3.0000
266,7,122,166.7929,-154.7915,WI,2,2,STAPLER,garage,R,2.2503,NR,3.0000
267,7,123,178.8538,-166.8519,WO,2,2,WINE,iceberg,NR,999.0000,R,3.8539
268,7,124,190.9146,-178.9130,WI,2,2,BOAT,lobby,R,2.2502,NR,3.0000
269,7,125,202.9766,-190.9735,WO,4,3,RAKE,manufactured_home,R,1.3610,NR,3.0000
270,7,126,215.0392,-203.0380,WO,4,4,RAKE,manufactured_home,R,1.1336,NR,3.0000
271,7,127,227.0995,-215.0974,WO,2,2,MOON,corn_field,R,1.4755,NR,3.0000
272,7,128,239.1607,-227.1600,WI,2,2,ASPARAGUS,pulpit,NR,999.0000,UR,3.1730
273,7,129,251.2204,-239.2183,WI,4,4,TROLLEY,shoe_shop,R,0.9805,NR,3.0000
274,7,130,263.2819,-251.2807,WO,2,2,BOOT,amphitheater,R,1.7062,UR,10.9244
275,7,131,275.3427,-263.3407,WO,4,4,MOUSE,badlands,R,0.7110,NR,3.0000
276,7,132,287.4037,-275.4019,WI,2,2,YACHT,ice_skating_rink,R,1.0948,NR,3.0000
277,7,133,299.4649,-287.4633,WI,4,4,FLASK,living_room,R,0.9524,NR,3.0000
278,7,134,311.5256,-299.5247,WO,4,3,MUSTARD,ruin,R,1.6096,NR,3.0000
279,7,135,323.5860,-311.5841,WO,4,3,NOODLE,barn,R,2.3358,NR,3.0000
280,7,136,335.6468,-323.6457,WI,4,3,STOMACH,diner,R,1.2681,NR,3.0000
281,7,137,347.7071,-335.7057,WO,2,2,BUTTER,butte,R,1.7065,NR,3.0000
282,7,138,359.7676,-347.7649,WO,2,2,ARROW,canyon,R,1.3337,NR,3.0000
283,7,139,371.8295,-359.8277,WI,4,4,CAMERA,operating_room,R,2.5431,NR,3.0000
284,7,140,383.8910,-371.8888,WI,4,4,STOMACH,diner,R,0.9552,NR,3.0000
285,7,141,395.9525,-383.9505,WI,2,2,TRIBE,elevator,R,2.4280,NR,3.0000
286,7,142,408.0135,-396.0127,WO,4,4,BANDIT,bayou,R,0.8763,NR,3.0000
287,7,143,420.0567,-408.0558,WI,4,4,SUNBURN,drugstore,R,1.2463,NR,3.0000
288,7,144,432.1165,-420.1153,WO,4,4,MEDICINE,palace,R,2.3519,NR,3.0000
289,7,145,444.1773,-432.1762,WI,2,2,WITCH,restaurant,R,1.5988,NR,3.0000
290,7,146,456.2376,-444.2367,WO,4,4,NOODLE,barn,R,0.7801,NR,3.0000
291,7,147,468.2975,-456.2966,WO,2,2,PASSPORT,bullring,NR,999.0000,R,4.3370
292,7,148,480.3581,-468.3561,WO,4,4,MUSTARD,ruin,R,1.0498,NR,3.0000
293,7,149,492.4192,-480.4183,WI,4,3,TURTLE,volleyball_court,R,2.0158,NR,3.0000
294,7,150,504.4796,-492.4784,WI,4,4,TURTLE,volleyball_court,R,1.3718,NR,3.0000
295,8,127,10.0028,1.9993,WI,4,3,MAGICIAN,kennel,R,1.4462,NR,3.0000
296,8,128,22.0668,-10.0658,WO,4,3,NAPKIN,gazebo,R,1.1569,NR,3.0000
297,8,129,34.1278,-22.1256,WI,4,3,LIME,florist_shop,R,1.4329,NR,3.0000
298,8,130,46.1901,-34.1892,WI,4,3,OWL,bedroom,R,2.9677,NR,3.0000
299,8,131,58.2511,-46.2503,WI,4,4,MAGICIAN,kennel,R,2.8114,NR,3.0000
300,8,132,70.3132,-58.3111,WO,4,3,SCORPION,marsh,R,1.7815,NR,3.0000
301,8,133,82.3758,-70.3746,WI,2,2,EYE,cubicle,R,1.3789,NR,3.0000
302,8,134,94.4371,-82.4338,WO,4,3,SCOTCH,formal_garden,R,1.4154,NR,3.0000
303,8,135,106.5007,-94.5000,WO,2,2,BOWL,lock_chamber,NR,999.0000,UR,3.1737
304,8,136,118.5621,-106.5606,WI,2,2,MAP,cathedral,R,1.5023,NR,3.0000
305,8,137,130.6237,-118.6216,WI,2,2,SOAP,playroom,R,1.1278,NR,3.0000
306,8,138,142.6863,-130.6856,WO,4,4,SCORPION,marsh,R,1.3056,NR,3.0000
307,8,139,154.7472,-142.7463,WO,4,3,CARROT,campsite,R,1.4327,NR,3.0000
308,8,140,166.8093,-154.8081,WI,4,3,PENCIL,galley,R,1.4684,NR,3.0000
309,8,141,178.8714,-166.8698,WI,4,3,FAN,bazaar,R,1.3963,NR,3.0000
310,8,142,190.9333,-178.9321,WO,4,4,CARROT,campsite,R,1.2490,NR,3.0000
311,8,143,202.9952,-190.9940,WI,4,3,MOTH,subway_interior,R,1.4197,NR,3.0000
312,8,144,215.0566,-203.0544,WO,2,2,WHIP,arch,NR,999.0000,UR,3.1157
313,8,145,227.1190,-215.1179,WO,2,2,HONEY,herb_garden,R,1.1638,NR,3.0000
314,8,146,239.1806,-227.1799,WI,4,4,FAN,bazaar,R,1.5085,NR,3.0000
315,8,147,251.2417,-239.2408,WO,4,3,BLANKET,promenade_deck,R,1.5596,NR,3.0000
316,8,148,263.3035,-251.3015,WI,4,4,LIME,florist_shop,R,1.4989,NR,3.0000
317,8,149,275.3658,-263.3642,WO,2,2,SCISSORS,observatory,NR,999.0000,NR,3.0000
318,8,150,287.4277,-275.4255,WI,4,3,KEG,throne_room,R,1.0597,NR,3.0000
319,8,151,299.4908,-287.4888,WI,4,4,PENCIL,galley,R,1.2433,NR,3.0000
320,8,152,311.5532,-299.5517,WO,4,4,SCOTCH,formal_garden,R,1.1402,NR,3.0000
321,8,153,323.6157,-311.6135,WO,2,2,JUGGLER,heliport,R,1.7534,NR,3.0000
322,8,154,335.6781,-323.6769,WO,4,3,POSTER,cemetery,R,1.7516,NR,3.0000
323,8,155,347.7394,-335.7385,WI,2,2,CRAB,riding_arena,UR,2.0485,NR,3.0000
324,8,156,359.8005,-347.7985,WO,2,2,BIBLE,market,R,2.1453,NR,3.0000
325,8,157,371.8628,-359.8610,WI,2,2,POWDER,assembly_line,NR,999.0000,UR,3.1697
326,8,158,383.9256,-371.9234,WO,4,3,RING,bamboo_forest,R,0.6925,NR,3.0000
327,8,159,395.9895,-383.9881,WO,4,4,BLANKET,promenade_deck,R,0.8812,NR,3.0000
328,8,160,408.0513,-396.0498,WI,4,4,OWL,bedroom,R,1.9277,NR,3.0000
329,8,161,420.1147,-408.1132,WO,4,4,RING,bamboo_forest,R,0.9719,NR,3.0000
330,8,162,432.1765,-420.1749,WO,2,2,CHERRY,ice_floe,R,2.6576,NR,3.0000
331,8,163,444.2389,-432.2376,WI,4,4,KEG,throne_room,R,1.1336,NR,3.0000
332,8,164,456.3009,-444.2998,WI,4,4,MOTH,subway_interior,R,1.1232,NR,3.0000
333,8,165,468.3625,-456.3618,WO,4,4,POSTER,cemetery,R,0.9144,NR,3.0000
334,8,166,480.4243,-468.4221,WI,2,2,LION,courtroom,R,1.4153,NR,3.0000
335,8,167,492.4868,-480.4852,WI,2,2,APPLE,music_store,R,2.4361,NR,3.0000
336,8,168,504.5494,-492.5481,WO,4,4,NAPKIN,gazebo,R,2.0580,NR,3.0000
337,9,145,10.0048,1.9970,WO,4,3,FIDDLE,moat,R,0.9750,NR,3.0000
338,9,146,22.0682,-10.0653,WI,4,3,BRAIN,parlor,R,1.1262,NR,3.0000
339,9,147,34.1306,-22.1290,WO,4,3,DUST,crevasse,R,1.6089,NR,3.0000
340,9,148,46.1909,-34.1898,WI,4,3,RIFLE,supermarket,R,1.6102,NR,3.0000
341,9,149,58.2510,-46.2497,WI,4,3,BRACELET,limousine_interior,R,1.6916,NR,3.0000
342,9,150,70.3112,-58.3104,WO,4,3,DOUGHNUT,fire_escape,R,1.6274,NR,3.0000
343,9,151,82.3711,-70.3699,WI,2,2,CANE,banquet_hall,R,1.3908,NR,3.0000
344,9,152,94.4318,-82.4301,WO,2,2,SCOOTER,lighthouse,R,1.9121,NR,3.0000
345,9,153,106.4923,-94.4908,WI,4,3,CANARY,casino,R,1.2791,NR,3.0000
346,9,154,118.5530,-106.5522,WI,4,4,BRACELET,limousine_interior,R,0.9642,NR,3.0000
347,9,155,130.6133,-118.6113,WI,2,2,CUCUMBER,computer_room,R,1.1688,NR,3.0000
348,9,156,142.6742,-130.6733,WO,4,3,HARPOON,forest_path,NR,999.0000,R,3.2336
349,9,157,154.7346,-142.7333,WI,2,2,PUDDLE,hospital_room,R,1.6720,NR,3.0000
350,9,158,166.7949,-154.7937,WO,4,4,HARPOON,forest_path,UR,1.6632,NR,3.0000
351,9,159,178.8550,-166.8532,WO,2,2,TROPHY,ice_shelf,R,2.3810,NR,3.0000
352,9,160,190.9163,-178.9155,WI,4,3,SAIL,reception,R,1.7359,NR,3.0000
353,9,161,202.9761,-190.9737,WO,4,3,MUSSEL,aqueduct,R,1.7319,NR,3.0000
354,9,162,215.0380,-203.0366,WI,4,4,RIFLE,supermarket,NR,999.0000,R,3.0202
355,9,163,227.0984,-215.0973,WI,4,4,SAIL,reception,R,1.2306,NR,3.0000
356,9,164,239.1585,-227.1575,WO,4,4,FIDDLE,moat,R,0.9268,NR,3.0000
357,9,165,251.2194,-239.2176,WI,2,2,SCREWDRIVER,gymnasium,R,1.4108,NR,3.0000
358,9,166,263.2802,-251.2780,WO,2,2,SLIPPER,lift_bridge,UR,1.7203,NR,3.0000
359,9,167,275.3421,-263.3412,WO,2,2,TOBACCO,fountain,UR,1.7585,NR,3.0000
360,9,168,287.4023,-275.4001,WI,4,4,BRAIN,parlor,R,1.1230,NR,3.0000
361,9,169,299.4638,-287.4616,WO,2,2,DRUG,cottage_garden,R,2.1135,NR,3.0000
362,9,170,311.5256,-299.5245,WI,2,2,BEAVER,hotel_room,R,1.1183,NR,3.0000
363,9,171,323.5860,-311.5838,WO,2,2,TULIP,playground,R,1.0275,NR,3.0000
364,9,172,335.6474,-323.6462,WI,2,2,SEAWEED,dining_room,R,1.7761,NR,3.0000
365,9,173,347.7078,-335.7064,WI,4,3,THONG,squash_court,R,1.3171,NR,3.0000
366,9,174,359.7683,-347.7676,WO,2,2,SHOVEL,nuclear_power_plant,R,1.4771,NR,3.0000
367,9,175,371.8293,-359.8283,WO,4,3,CLAM,cabin,R,1.1597,NR,3.0000
368,9,176,383.8899,-371.8889,WI,2,2,GLOBE,clothing_store,R,1.8374,NR,3.0000
369,9,177,395.9507,-383.9487,WI,4,3,SPONGE,office,R,1.6739,NR,3.0000
370,9,178,408.0121,-396.0105,WO,4,4,DUST,crevasse,R,1.8824,NR,3.0000
371,9,179,420.0730,-408.0719,WO,4,4,MUSSEL,aqueduct,R,2.0625,NR,3.0000
372,9,180,432.1340,-420.1324,WI,4,4,THONG,squash_court,R,1.3910,NR,3.0000
373,9,181,444.1947,-432.1938,WO,4,3,ROCK,picnic_area,R,1.6218,NR,3.0000
374,9,182,456.2554,-444.2535,WI,4,4,CANARY,casino,R,1.2902,NR,3.0000
375,9,183,468.3165,-456.3147,WO,4,4,CLAM,cabin,R,1.7359,NR,3.0000
376,9,184,480.3777,-468.3765,WO,4,4,ROCK,picnic_area,R,1.3225,NR,3.0000
377,9,185,492.4384,-480.4370,WI,4,4,SPONGE,office,R,1.1018,NR,3.0000
378,9,186,504.4990,-492.4978,WO,4,4,DOUGHNUT,fire_escape,R,1.2125,NR,3.0000
379,10,163,10.0032,1.9988,WI,2,2,LANTERN,kindergarden_classroom,UR,2.7613,NR,3.0000
380,10,164,22.0698,-10.0675,WO,2,2,CHOCOLATE,watering_hole,R,1.2775,UR,9.5134
381,10,165,34.1336,-22.1317,WO,4,3,RICE,basketball_court,R,1.4284,NR,3.0000
382,10,166,46.1972,-34.1964,WI,4,3,PUMPKIN,ball_pit,R,1.1065,NR,3.0000
383,10,167,58.2599,-46.2588,WI,2,2,MILK,bathroom,R,1.3188,NR,3.0000
384,10,168,70.3223,-58.3212,WO,2,2,WAND,excavation,R,2.0755,NR,3.0000
385,10,169,82.3858,-70.3845,WI,4,3,WHEAT,childs_room,R,1.9599,NR,3.0000
386,10,170,94.4490,-82.4467,WI,4,3,LIGHTNING,laundromat,R,1.1977,NR,3.0000
387,10,171,106.5130,-94.5100,WI,4,3,TRAY,jail_cell,R,1.3628,NR,3.0000
388,10,172,118.5776,-106.5768,WO,4,3,LETTUCE,phone_booth,R,1.6167,NR,3.0000
389,10,173,130.6403,-118.6381,WI,2,2,TOWEL,catacomb,R,1.8706,NR,3.0000
390,10,174,142.7042,-130.7033,WO,4,3,TIGER,forest_needleleaf,R,1.6840,NR,3.0000
391,10,175,154.7669,-142.7656,WI,4,4,PUMPKIN,ball_pit,R,1.2165,NR,3.0000
392,10,176,166.8306,-154.8297,WI,4,3,QUILL,tennis_court,UR,1.5332,NR,3.0000
393,10,177,178.8934,-166.8914,WO,2,2,SHARK,carrousel,R,1.6350,NR,3.0000
394,10,178,190.9573,-178.9552,WO,4,4,LETTUCE,phone_booth,R,1.5678,NR,3.0000
395,10,179,203.0218,-191.0199,WO,2,2,CRADLE,park,R,2.2145,NR,3.0000
396,10,180,215.0855,-203.0842,WI,4,3,DESK,ballroom,R,1.3002,NR,3.0000
397,10,181,227.1492,-215.1465,WI,4,4,DESK,ballroom,R,1.0323,NR,3.0000
398,10,182,239.2137,-227.2127,WO,2,2,SNAIL,raceway,R,1.4936,NR,3.0000
399,10,183,251.2766,-239.2748,WI,4,3,GLOVE,sauna,R,0.9541,NR,3.0000
400,10,184,263.3408,-251.3394,WI,2,2,KALE,natural_history_museum,R,1.5425,NR,3.0000
401,10,185,275.4040,-263.4029,WO,4,3,HAMMER,creek,R,2.4859,NR,3.0000
402,10,186,287.4674,-275.4654,WO,4,4,HAMMER,creek,R,1.1056,NR,3.0000
403,10,187,299.5314,-287.5299,WI,2,2,FENCE,cockpit,UR,1.4724,NR,3.0000
404,10,188,311.5949,-299.5933,WO,4,3,DOVE,landing_deck,R,1.1655,NR,3.0000
405,10,189,323.6594,-311.6579,WO,2,2,PENNY,driving_range,UR,1.9290,NR,3.0000
406,10,190,335.7228,-323.7204,WI,4,4,LIGHTNING,laundromat,R,0.8875,NR,3.0000
407,10,191,347.7874,-335.7867,WO,4,3,TABLE,hot_spring,UR,1.8280,NR,3.0000
408,10,192,359.8500,-347.8477,WI,4,4,GLOVE,sauna,R,1.2328,NR,3.0000
409,10,193,371.9143,-359.9134,WO,4,3,OYSTER,pond,R,1.1429,NR,3.0000
410,10,194,383.9777,-371.9758,WO,4,4,TABLE,hot_spring,UR,1.4039,NR,3.0000
411,10,195,396.0414,-384.0391,WI,4,4,QUILL,tennis_court,UR,1.5731,NR,3.0000
412,10,196,408.1063,-396.1047,WI,4,4,WHEAT,childs_room,R,1.2913,NR,3.0000
413,10,197,420.1696,-408.1682,WI,2,2,SCROLL,kitchenette,R,2.2489,NR,3.0000
414,10,198,432.2330,-420.2318,WO,4,4,TIGER,forest_needleleaf,R,1.2963,NR,3.0000
415,10,199,444.2967,-432.2954,WO,2,2,PANTS,outhouse,R,2.3567,NR,3.0000
416,10,200,456.3601,-444.3580,WO,4,4,DOVE,landing_deck,R,0.9618,NR,3.0000
417,10,201,468.4245,-456.4237,WI,2,2,JACKET,stage,R,1.6335,NR,3.0000
418,10,202,480.4874,-468.4851,WI,4,4,TRAY,jail_cell,R,1.3934,NR,3.0000
419,10,203,492.5517,-480.5495,WO,4,4,RICE,basketball_court,R,2.1259,NR,3.0000
420,10,204,504.6166,-492.6159,WO,4,4,OYSTER,pond,R,1.9636,NR,3.0000
421,11,181,10.0032,1.9984,WO,4,3,PIGEON,mountain_snowy,R,1.5001,NR,3.0000
422,11,182,22.0730,-10.0715,WI,2,2,ROSE,dentists_office,R,2.0383,NR,3.0000
423,11,183,34.1406,-22.1387,WO,4,4,PIGEON,mountain_snowy,R,1.2393,NR,3.0000
424,11,184,46.2082,-34.2069,WI,4,3,BONE,chicken_coop,R,1.8149,NR,3.0000
425,11,185,58.2753,-46.2733,WO,2,2,ANT,house,UR,2.5982,NR,3.0000
426,11,186,70.3437,-58.3423,WO,4,3,PEARL,greenhouse,UR,1.7618,NR,3.0000
427,11,187,82.4108,-70.4088,WI,4,3,GEESE,museum,NR,999.0000,R,3.1815
428,11,188,94.4791,-82.4773,WO,2,2,SEAL,hangar,R,1.9344,NR,3.0000
429,11,189,106.5468,-94.5451,WI,2,2,BAYONET,home_office,R,2.4169,NR,3.0000
430,11,190,118.6142,-106.6117,WI,4,3,KILT,cloister,R,1.9112,NR,3.0000
431,11,191,130.6829,-118.6814,WO,4,3,HIGHWAY,corral,R,1.2015,NR,3.0000
432,11,192,142.7502,-130.7485,WI,4,4,GEESE,museum,UR,2.1216,NR,3.0000
433,11,193,154.8183,-142.8164,WI,4,3,QUAIL,bowling_alley,UR,2.0739,NR,3.0000
434,11,194,166.8859,-154.8847,WO,4,3,PASTE,mountain,R,1.2829,NR,3.0000
435,11,195,178.9531,-166.9524,WO,2,2,SARDINE,basilica,R,1.5467,NR,3.0000
436,11,196,191.0195,-179.0175,WO,2,2,OPIUM,field_wild,R,1.6478,NR,3.0000
437,11,197,203.0873,-191.0856,WI,4,4,BONE,chicken_coop,R,1.0069,NR,3.0000
438,11,198,215.1552,-203.1537,WI,4,3,BARREL,closet,UR,1.9711,NR,3.0000
439,11,199,227.2226,-215.2211,WO,4,4,PEARL,greenhouse,UR,1.0193,NR,3.0000
440,11,200,239.2900,-227.2886,WO,2,2,CLARINET,hotel,R,1.9230,NR,3.0000
441,11,201,251.3579,-239.3563,WI,4,3,ICICLE,auditorium,UR,2.9817,NR,3.0000
442,11,202,263.4256,-251.4244,WO,4,3,MITTEN,oilrig,UR,2.4039,NR,3.0000
443,11,203,275.4934,-263.4918,WI,2,2,BROWNIE,badminton_court,UR,2.0633,NR,3.0000
444,11,204,287.5608,-275.5585,WI,4,4,BARREL,closet,NR,999.0000,NR,3.0000
445,11,205,299.6287,-287.6280,WO,2,2,CANDY,river,R,1.9053,NR,3.0000
446,11,206,311.6960,-299.6945,WI,4,4,KILT,cloister,R,1.4316,NR,3.0000
447,11,207,323.7636,-311.7615,WI,4,4,ICICLE,auditorium,NR,999.0000,UR,3.2060
448,11,208,335.8318,-323.8309,WI,4,4,QUAIL,bowling_alley,R,1.3187,NR,3.0000
449,11,209,347.8988,-335.8968,WO,4,4,PASTE,mountain,R,1.6015,NR,3.0000
450,11,210,359.9666,-347.9648,WO,4,3,ORNAMENT,islet,R,1.9196,NR,3.0000
451,11,211,372.0346,-360.0334,WO,4,3,BANANA,beach,R,2.3717,NR,3.0000
452,11,212,384.1016,-372.0996,WI,4,3,CHEESE,dorm_room,R,2.5346,NR,3.0000
453,11,213,396.1700,-384.1681,WO,4,4,BANANA,beach,R,1.6210,NR,3.0000
454,11,214,408.2374,-396.2356,WO,4,4,ORNAMENT,islet,R,1.7233,NR,3.0000
455,11,215,420.3051,-408.3029,WI,2,2,LAMP,biology_laboratory,R,1.3515,NR,3.0000
456,11,216,432.3735,-420.3712,WO,4,4,MITTEN,oilrig,UR,2.1025,NR,3.0000
457,11,217,444.4418,-432.4406,WI,2,2,RABBIT,cafeteria,R,2.0680,NR,3.0000
458,11,218,456.5099,-444.5076,WI,2,2,CORAL,archive,R,1.5536,NR,3.0000
459,11,219,468.5791,-456.5783,WO,4,4,HIGHWAY,corral,R,1.8334,NR,3.0000
460,11,220,480.6457,-468.6441,WI,4,4,CHEESE,dorm_room,R,1.4689,NR,3.0000
461,11,221,492.7131,-480.7115,WI,2,2,BASKET,theater,R,1.9732,NR,3.0000
462,11,222,504.7808,-492.7790,WO,2,2,FORK,hayfield,R,1.3520,NR,3.0000
463,12,199,10.0042,1.9984,WI,4,3,ORCHID,music_studio,R,1.7292,NR,3.0000
464,12,200,22.0750,-10.0743,WI,4,3,WALNUT,restaurant_kitchen,R,1.5132,NR,3.0000
465,12,201,34.1413,-22.1390,WI,4,3,SAXOPHONE,jewelry_shop,R,1.4283,NR,3.0000
466,12,202,46.2099,-34.2088,WO,4,3,LAMB,rice_paddy,R,1.0139,NR,3.0000
467,12,203,58.2769,-46.2758,WI,4,3,KNIFE,attic,R,1.5955,NR,3.0000
468,12,204,70.3434,-58.3420,WO,4,3,DAISY,harbor,NR,999.0000,R,3.3062
469,12,205,82.4104,-70.4092,WO,2,2,PIANO,dam,UR,2.2012,NR,3.0000
470,12,206,94.4774,-82.4748,WI,4,3,SANDAL,kitchen,R,1.4178,NR,3.0000
471,12,207,106.5455,-94.5436,WI,4,3,COFFEE,game_room,R,1.9140,NR,3.0000
472,12,208,118.6131,-106.6123,WO,4,3,WALRUS,hot_tub,R,1.4170,NR,3.0000
473,12,209,130.6797,-118.6773,WI,4,4,COFFEE,game_room,R,1.6950,NR,3.0000
474,12,210,142.7487,-130.7462,WO,2,2,SPATULA,athletic_field,R,1.4206,NR,3.0000
475,12,211,154.8169,-142.8137,WO,4,3,RUDDER,botanical_garden,R,1.5986,NR,3.0000
476,12,212,166.8863,-154.8848,WO,4,3,ZIPPER,boardwalk,UR,2.8588,NR,3.0000
477,12,213,178.9538,-166.9506,WI,4,3,HOOK,car_interior,UR,1.7836,NR,3.0000
478,12,214,191.0225,-179.0205,WO,4,3,ASPIRIN,bridge,R,2.3021,NR,3.0000
479,12,215,203.0907,-191.0881,WO,4,4,DAISY,harbor,UR,2.6418,NR,3.0000
480,12,216,215.1595,-203.1586,WI,2,2,CROWN,bistro,NR,999.0000,NR,3.0000
481,12,217,227.2271,-215.2257,WO,4,4,ASPIRIN,bridge,R,1.7093,NR,3.0000
482,12,218,239.2946,-227.2935,WI,2,2,RASH,aquarium,UR,1.9295,NR,3.0000
483,12,219,251.3616,-239.3594,WO,2,2,SQUIRREL,igloo,R,1.2007,NR,3.0000
484,12,220,263.4298,-251.4284,WI,2,2,CLOAK,fastfood_restaurant,NR,999.0000,NR,3.0000
485,12,221,275.4974,-263.4957,WI,4,4,HOOK,car_interior,UR,1.6592,NR,3.0000
486,12,222,287.5653,-275.5644,WO,4,4,RUDDER,botanical_garden,R,1.4327,NR,3.0000
487,12,223,299.6323,-287.6301,WI,4,4,SAXOPHONE,jewelry_shop,R,1.3842,NR,3.0000
488,12,224,311.7005,-299.6994,WI,2,2,ROSARY,television_studio,UR,2.6556,NR,3.0000
489,12,225,323.7677,-311.7652,WO,4,3,BALLOON,canal,R,2.0989,NR,3.0000
490,12,226,335.8361,-323.8342,WO,2,2,NET,garbage_dump,R,2.0856,NR,3.0000
491,12,227,347.9048,-335.9034,WI,4,4,WALNUT,restaurant_kitchen,R,1.8521,NR,3.0000
492,12,228,359.9721,-347.9711,WO,4,4,LAMB,rice_paddy,R,1.1404,NR,3.0000
493,12,229,372.0391,-360.0372,WI,2,2,TORNADO,shopping_mall,UR,2.0286,NR,3.0000
494,12,230,384.1071,-372.1056,WO,4,4,WALRUS,hot_tub,R,1.5081,NR,3.0000
495,12,231,396.1745,-384.1726,WI,4,4,SANDAL,kitchen,R,1.8374,NR,3.0000
496,12,232,408.2428,-396.2420,WI,4,4,KNIFE,attic,R,1.8352,NR,3.0000
497,12,233,420.3101,-408.3091,WI,4,4,ORCHID,music_studio,R,1.6665,NR,3.0000
498,12,234,432.3774,-420.3756,WO,2,2,BABY,putting_green,R,2.1768,NR,3.0000
499,12,235,444.4460,-432.4441,WO,4,4,BALLOON,canal,R,1.6513,NR,3.0000
500,12,236,456.5140,-444.5124,WO,2,2,HOSE,boathouse,R,2.2231,NR,3.0000
501,12,237,468.5821,-456.5805,WI,2,2,PYTHON,athletic_field,R,2.0100,NR,3.0000
502,12,238,480.6501,-468.6486,WO,4,4,ZIPPER,boardwalk,NR,999.0000,R,3.1943
503,12,239,492.7185,-480.7168,WO,2,2,MUFFIN,kasbah,UR,1.8662,NR,3.0000
504,12,240,504.7871,-492.7860,WI,2,2,NIGHTGOWN,library,R,2.3539,NR,3.0000
