index,run,trial,onset,duration,cond,shockCond,shockTrial,target,associate,resp,acc,accSpec,respRT,ISIresp,ISIacc,ISIaccSpec,ISIrespRT
1,1,1,12.0250,12.3370,F,safe,0,SOOT,foil,F,CR,CR,1.5828,NR,NR,NR,999.0000
2,1,2,24.3912,9.6323,TO_2,safe,0,SALAD,ocean,TO,H,HO_Hi,1.8496,NR,NR,NR,999.0000
3,1,3,34.0602,9.2666,F,safe,0,OMELET,foil,TO,FA,FAO_Hi,1.5656,NR,NR,NR,999.0000
4,1,4,43.3552,9.9338,F,safe,0,HAWK,foil,F,CR,CR,3.3012,NR,NR,NR,999.0000
5,1,5,53.3173,11.2671,F,safe,0,SOCK,foil,TI,FA,FAI_Hi,1.4874,NR,NR,NR,999.0000
6,1,6,64.6133,10.3740,TO_2,safe,0,ARROW,canyon,TI,SM,SMO_Hi,2.1104,NR,NR,NR,999.0000
7,1,7,75.0157,10.5540,TO_4,safe,0,MUSTARD,ruin,TI,SM,SMO_Hi,1.6104,NR,NR,NR,999.0000
8,1,8,85.5980,9.5376,TO_4,safe,0,NOODLE,barn,TI,SM,SMO_Hi,1.3260,NR,NR,NR,999.0000
9,1,9,95.1644,11.6823,TO_2,safe,0,MOON,corn_field,TI,SM,SMO_Hi,1.6791,NR,NR,NR,999.0000
10,1,10,106.8744,9.0594,TI_4,safe,0,PIE,locker_room,TI,H,HI_Hi,1.9978,NR,NR,NR,999.0000
11,1,11,115.9623,9.3764,TI_4,safe,0,FLASK,living_room,TO,SM,SMI_Hi,1.7588,NR,NR,NR,999.0000
12,1,12,125.3677,9.8081,F,safe,0,GARBAGE,foil,NR,NR,NR,999.0000,NR,NR,NR,999.0000
13,1,13,135.2043,11.9435,TI_2,safe,0,YACHT,ice_skating_rink,TO,SM,SMI_Hi,2.3109,NR,NR,NR,999.0000
14,1,14,147.1759,11.6233,TO_2,safe,0,PASSPORT,bullring,TI,SM,SMO_Hi,2.2481,NR,NR,NR,999.0000
15,1,15,158.8281,12.3240,TI_2,safe,0,HELMET,parking_garage,TI,H,HI_Hi,2.9351,NR,NR,NR,999.0000
16,1,16,171.1805,9.3937,TI_2,safe,0,BOAT,lobby,F,M,MI,2.9380,NR,NR,NR,999.0000
17,1,17,180.6027,11.1875,F,safe,0,CAGE,foil,F,CR,CR,1.9693,NR,NR,NR,999.0000
18,1,18,191.8180,10.0971,F,safe,0,DIAMOND,foil,TI,FA,FAI_Hi,2.4284,NR,NR,NR,999.0000
19,1,19,201.9432,10.1079,F,safe,0,GORILLA,foil,F,CR,CR,3.7108,NR,NR,NR,999.0000
20,1,20,212.0793,9.6874,TI_2,safe,0,STAPLER,garage,TI,H,HI_Hi,2.4997,NR,NR,NR,999.0000
21,1,21,221.7956,9.7628,TO_4,safe,0,RAKE,manufactured_home,TI,SM,SMO_Hi,2.4516,NR,NR,NR,999.0000
22,1,22,231.5873,10.9958,TI_2,safe,0,TRIBE,elevator,TI,H,HI_Hi,3.2748,NR,NR,NR,999.0000
23,1,23,242.6114,9.9234,TO_4,safe,0,GOAT,power_plant,TO,H,HO_Hi,2.2167,NR,NR,NR,999.0000
24,1,24,252.5640,10.7106,F,safe,0,ORANGE,foil,F,CR,CR,3.8906,NR,NR,NR,999.0000
25,1,25,263.3034,9.8956,TO_2,safe,0,BUTTER,butte,F,M,MI,1.1233,F,M,MI,0.0708
26,1,26,273.2272,9.1264,TO_4,safe,0,BANDIT,bayou,TI,SM,SMO_Hi,2.4221,NR,NR,NR,999.0000
27,1,27,282.3827,10.1999,TO_4,safe,0,MEDICINE,palace,TO,H,HO_Hi,2.2894,NR,NR,NR,999.0000
28,1,28,292.6114,9.6900,F,safe,0,VELVET,foil,F,CR,CR,2.4423,NR,NR,NR,999.0000
29,1,29,302.3294,9.4199,F,safe,0,FOX,foil,F,CR,CR,1.3103,NR,NR,NR,999.0000
30,1,30,311.7787,9.9880,TI_4,safe,0,TROLLEY,shoe_shop,TI,H,HI_Hi,1.6939,NR,NR,NR,999.0000
31,1,31,321.7962,9.1164,TI_2,safe,0,ASPARAGUS,pulpit,TI,H,HI_Hi,1.7267,NR,NR,NR,999.0000
32,1,32,330.9410,9.9142,TI_4,safe,0,CAMERA,operating_room,TI,H,HI_Hi,2.0487,NR,NR,NR,999.0000
33,1,33,340.8846,9.2537,F,safe,0,TOAST,foil,F,CR,CR,1.0387,NR,NR,NR,999.0000
34,1,34,350.1669,9.1486,F,safe,0,OTTER,foil,F,CR,CR,0.9255,NR,NR,NR,999.0000
35,1,35,359.3442,10.4700,TI_4,safe,0,TURTLE,volleyball_court,TI,H,HI_Hi,1.9421,NR,NR,NR,999.0000
36,1,36,369.8430,9.7560,TO_2,safe,0,WINE,iceberg,F,M,MI,1.4900,NR,NR,NR,999.0000
37,1,37,379.6279,10.5696,TO_4,safe,0,MOUSE,badlands,F,M,MI,1.9432,NR,NR,NR,999.0000
38,1,38,390.2264,9.7558,F,safe,0,NEEDLE,foil,F,CR,CR,2.1746,NR,NR,NR,999.0000
39,1,39,400.0113,9.1012,TI_4,safe,0,STOMACH,diner,TI,H,HI_Hi,1.9691,NR,NR,NR,999.0000
40,1,40,409.1412,11.3378,TI_4,safe,0,SUNBURN,drugstore,TI,H,HI_Hi,2.0968,NR,NR,NR,999.0000
41,1,41,420.5078,9.1793,TI_2,safe,0,WITCH,restaurant,TI,H,HI_Hi,3.1348,NR,NR,NR,999.0000
42,1,42,429.7164,10.6514,TO_2,safe,0,BOOT,amphitheater,F,M,MI,2.1140,NR,NR,NR,999.0000
43,2,1,12.0050,9.9384,TI_2,threat,0,CRAB,riding_arena,F,M,MI,1.3773,NR,NR,NR,999.0000
44,2,2,21.9749,10.7074,TI_4,threat,0,FAN,bazaar,F,M,MI,0.9375,NR,NR,NR,999.0000
45,2,3,32.7130,11.3348,TI_2,threat,0,SOAP,playroom,F,M,MI,1.8547,NR,NR,NR,999.0000
46,2,4,44.0804,12.6507,TI_4,threat,1,KEG,throne_room,NR,NR,NR,999.0000,NR,NR,NR,999.0000
47,2,5,56.7611,12.3272,TI_2,threat,0,LION,courtroom,F,M,MI,1.9232,NR,NR,NR,999.0000
48,2,6,69.1197,9.8955,TI_4,threat,0,MAGICIAN,kennel,TO,SM,SMI_Hi,1.4593,NR,NR,NR,999.0000
49,2,7,79.0456,9.6849,TO_4,threat,0,BLANKET,promenade_deck,F,M,MI,1.1809,NR,NR,NR,999.0000
50,2,8,88.7612,10.4690,TO_2,threat,0,SCISSORS,observatory,TI,SM,SMO_Hi,1.2711,NR,NR,NR,999.0000
51,2,9,99.2608,9.6879,F,threat,0,FIRE,foil,F,CR,CR,1.3381,NR,NR,NR,999.0000
52,2,10,108.9796,9.4162,TO_2,threat,0,JUGGLER,heliport,TO,H,HO_Hi,2.7627,NR,NR,NR,999.0000
53,2,11,118.4263,9.1467,F,threat,0,QUARTER,foil,F,CR,CR,2.4605,NR,NR,NR,999.0000
54,2,12,127.6031,9.0581,F,threat,0,VINE,foil,F,CR,CR,1.5067,NR,NR,NR,999.0000
55,2,13,136.6920,9.9884,TI_4,threat,0,LIME,florist_shop,TI,H,HI_Hi,2.1373,NR,NR,NR,999.0000
56,2,14,146.7111,9.9206,F,threat,0,DRUM,foil,F,CR,CR,1.7165,NR,NR,NR,999.0000
57,2,15,156.6623,9.7530,TI_4,threat,0,MOTH,subway_interior,TO,SM,SMI_Hi,1.7065,NR,NR,NR,999.0000
58,2,16,166.4465,9.2754,TO_2,threat,0,BOWL,lock_chamber,TI,SM,SMO_Hi,1.9993,NR,NR,NR,999.0000
59,2,17,175.7531,12.3220,F,threat,0,ALLIGATOR,foil,F,CR,CR,1.1378,NR,NR,NR,999.0000
60,2,18,188.1057,9.1761,TO_4,threat,0,POSTER,cemetery,TO,H,HO_Hi,2.7616,NR,NR,NR,999.0000
61,2,19,197.3125,11.2654,TO_4,threat,0,SCORPION,marsh,TO,H,HO_Hi,1.7500,NR,NR,NR,999.0000
62,2,20,208.6083,11.9424,TI_2,threat,0,EYE,cubicle,F,M,MI,1.4617,NR,NR,NR,999.0000
63,2,21,220.5822,10.1057,F,threat,0,SOUP,foil,F,CR,CR,1.6760,NR,NR,NR,999.0000
64,2,22,230.7179,9.1232,F,threat,0,PAN,foil,F,CR,CR,1.8895,NR,NR,NR,999.0000
65,2,23,239.8718,10.3716,TI_4,threat,0,PENCIL,galley,TI,H,HI_Hi,2.0197,NR,NR,NR,999.0000
66,2,24,250.2741,9.7552,TI_2,threat,0,MAP,cathedral,F,M,MI,1.4275,NR,NR,NR,999.0000
67,2,25,260.0602,9.3888,TO_2,threat,0,HONEY,herb_garden,F,M,MI,1.1803,NR,NR,NR,999.0000
68,2,26,269.4795,10.5683,TO_4,threat,0,RING,bamboo_forest,TO,H,HO_Hi,2.3120,NR,NR,NR,999.0000
69,2,27,280.0791,11.6181,F,threat,0,EASEL,foil,F,CR,CR,1.1680,NR,NR,NR,999.0000
70,2,28,291.7285,9.5359,TO_4,threat,0,NAPKIN,gazebo,F,M,MI,1.4383,NR,NR,NR,999.0000
71,2,29,301.2952,9.6320,F,threat,0,POTATO,foil,F,CR,CR,1.5628,NR,NR,NR,999.0000
72,2,30,310.9585,9.7602,F,threat,0,DAMSEL,foil,F,CR,CR,1.2745,NR,NR,NR,999.0000
73,2,31,320.7495,10.9943,TO_4,threat,0,SCOTCH,formal_garden,TI,SM,SMO_Hi,2.1352,NR,NR,NR,999.0000
74,2,32,331.7743,10.5519,TO_2,threat,0,WHIP,arch,TO,H,HO_Hi,3.0680,NR,NR,NR,999.0000
75,2,33,342.3579,9.1135,TI_2,threat,0,POWDER,assembly_line,TO,SM,SMI_Hi,2.9651,NR,NR,NR,999.0000
76,2,34,351.5023,9.3739,F,threat,0,PLUG,foil,F,CR,CR,2.0007,NR,NR,NR,999.0000
77,2,35,360.9079,9.9292,F,threat,0,TYPEWRITER,foil,F,CR,CR,0.8941,NR,NR,NR,999.0000
78,2,36,370.8684,11.1861,TO_2,threat,0,BIBLE,market,F,M,MI,0.9049,NR,NR,NR,999.0000
79,2,37,382.0855,9.8048,F,threat,0,FROG,foil,F,CR,CR,1.1376,NR,NR,NR,999.0000
80,2,38,391.9208,10.1981,TI_4,threat,0,OWL,bedroom,TI,H,HI_Hi,2.3556,NR,NR,NR,999.0000
81,2,39,402.1506,9.0993,TO_4,threat,0,CARROT,campsite,F,M,MI,1.7043,NR,NR,NR,999.0000
82,2,40,411.2810,10.0934,F,threat,0,ROCKER,foil,F,CR,CR,1.4342,NR,NR,NR,999.0000
83,2,41,421.4053,11.6793,TO_2,threat,0,CHERRY,ice_floe,TO,H,HO_Hi,2.7228,NR,NR,NR,999.0000
84,2,42,433.1160,9.2527,TI_2,threat,0,APPLE,music_store,F,M,MI,1.3381,NR,NR,NR,999.0000
85,3,1,12.0055,10.5947,TI_2,safe,0,SEAWEED,dining_room,F,M,MI,2.6244,NR,NR,NR,999.0000
86,3,2,22.6336,11.6163,TO_4,safe,0,HARPOON,forest_path,TO,H,HO_Hi,2.3617,NR,NR,NR,999.0000
87,3,3,34.2817,12.3270,TO_2,safe,0,SLIPPER,lift_bridge,F,M,MI,2.4532,NR,NR,NR,999.0000
88,3,4,46.6400,9.1143,TO_4,safe,0,DUST,crevasse,TI,SM,SMO_Hi,2.6039,NR,NR,NR,999.0000
89,3,5,55.7877,9.8036,TI_2,safe,0,CUCUMBER,computer_room,TO,SM,SMI_Hi,2.8807,NR,NR,NR,999.0000
90,3,6,65.6227,10.3712,TI_4,safe,0,BRACELET,limousine_interior,TI,H,HI_Hi,2.5135,NR,NR,NR,999.0000
91,3,7,76.0258,9.9089,TI_2,safe,0,PUDDLE,hospital_room,TI,H,HI_Hi,3.8134,NR,NR,NR,999.0000
92,3,8,85.9665,9.7599,TO_2,safe,0,TROPHY,ice_shelf,F,M,MI,1.4955,NR,NR,NR,999.0000
93,3,9,95.7582,11.2660,F,safe,0,VODKA,foil,F,CR,CR,1.3920,NR,NR,NR,999.0000
94,3,10,107.0560,9.1743,F,safe,0,ACROBAT,foil,F,CR,CR,1.3364,NR,NR,NR,999.0000
95,3,11,116.2625,10.5508,TI_4,safe,0,THONG,squash_court,TI,H,HI_Hi,2.3779,NR,NR,NR,999.0000
96,3,12,126.8453,9.7520,TI_4,safe,0,SPONGE,office,TO,SM,SMI_Hi,2.6101,NR,NR,NR,999.0000
97,3,13,136.6300,12.3211,TO_4,safe,0,DOUGHNUT,fire_escape,TI,SM,SMO_Hi,3.3239,NR,NR,NR,999.0000
98,3,14,148.9832,9.6882,TI_2,safe,0,CANE,banquet_hall,TI,H,HI_Hi,2.3733,NR,NR,NR,999.0000
99,3,15,158.7033,9.9288,TO_2,safe,0,SCOOTER,lighthouse,TO,H,HO_Hi,3.0167,NR,NR,NR,999.0000
100,3,16,168.6641,10.7081,TO_2,safe,0,TOBACCO,fountain,F,M,MI,1.6265,NR,NR,NR,999.0000
101,3,17,179.4041,9.9854,TI_4,safe,0,BRAIN,parlor,F,M,MI,2.0236,NR,NR,NR,999.0000
102,3,18,189.4214,9.3725,TO_2,safe,0,TULIP,playground,TO,H,HO_Hi,2.4185,NR,NR,NR,999.0000
103,3,19,198.8263,9.8924,TO_4,safe,0,MUSSEL,aqueduct,TO,H,HO_Hi,1.7875,NR,NR,NR,999.0000
104,3,20,208.7511,10.0927,TO_2,safe,0,DRUG,cottage_garden,F,M,MI,2.1900,NR,NR,NR,999.0000
105,3,21,218.8759,9.5341,F,safe,0,VIOLIN,foil,F,CR,CR,1.5572,NR,NR,NR,999.0000
106,3,22,228.4428,11.3343,TI_2,safe,0,SCREWDRIVER,gymnasium,TO,SM,SMI_Hi,2.9656,NR,NR,NR,999.0000
107,3,23,239.8092,9.4160,TI_2,safe,0,GLOBE,clothing_store,TI,H,HI_Hi,2.3599,NR,NR,NR,999.0000
108,3,24,249.2573,9.9202,TI_2,safe,0,BEAVER,hotel_room,TI,H,HI_Hi,1.9762,NR,NR,NR,999.0000
109,3,25,259.2096,11.1837,TO_4,safe,0,CLAM,cabin,TI,SM,SMO_Hi,2.5650,NR,NR,NR,999.0000
110,3,26,270.4260,9.1221,F,safe,0,ROPE,foil,F,CR,CR,1.4032,NR,NR,NR,999.0000
111,3,27,279.5804,10.9934,TO_4,safe,0,ROCK,picnic_area,TO,H,HO_Hi,2.1303,NR,NR,NR,999.0000
112,3,28,290.6062,9.0971,F,safe,0,SHRIMP,foil,F,CR,CR,1.2917,NR,NR,NR,999.0000
113,3,29,299.7360,9.1452,F,safe,0,QUILT,foil,F,CR,CR,1.6570,NR,NR,NR,999.0000
114,3,30,308.9135,10.6495,TO_2,safe,0,SHOVEL,nuclear_power_plant,TO,H,HO_Hi,2.5032,NR,NR,NR,999.0000
115,3,31,319.5951,11.9398,F,safe,0,EMPEROR,foil,F,CR,CR,1.7458,NR,NR,NR,999.0000
116,3,32,331.5677,10.4666,TI_4,safe,0,CANARY,casino,F,M,MI,2.4487,NR,NR,NR,999.0000
117,3,33,342.0667,9.2500,F,safe,0,CEREAL,foil,F,CR,CR,1.4768,NR,NR,NR,999.0000
118,3,34,351.3484,9.6853,TI_4,safe,0,RIFLE,supermarket,F,M,MI,1.4953,NR,NR,NR,999.0000
119,3,35,361.0663,9.7503,TO_4,safe,0,FIDDLE,moat,TO,H,HO_Hi,2.3526,NR,NR,NR,999.0000
120,3,36,370.8489,10.1958,F,safe,0,UMBRELLA,foil,F,CR,CR,1.3413,NR,NR,NR,999.0000
121,3,37,381.0771,9.2720,F,safe,0,CANDLE,foil,F,CR,CR,1.6632,NR,NR,NR,999.0000
122,3,38,390.3814,9.0569,F,safe,0,OLIVE,foil,F,CR,CR,1.4218,NR,NR,NR,999.0000
123,3,39,399.4702,11.6785,TI_4,safe,0,SAIL,reception,TI,H,HI_Hi,2.6072,NR,NR,NR,999.0000
124,3,40,411.1813,10.1036,F,safe,0,SWORD,foil,F,CR,CR,1.7429,NR,NR,NR,999.0000
125,3,41,421.3177,9.3883,F,safe,0,SHELL,foil,F,CR,CR,1.5638,NR,NR,NR,999.0000
126,3,42,430.7382,9.6296,F,safe,0,PEDAL,foil,F,CR,CR,1.6484,NR,NR,NR,999.0000
127,4,1,12.0056,10.7348,TO_2,threat,0,PENNY,driving_range,TI,SM,SMO_Hi,2.0591,NR,NR,NR,999.0000
128,4,2,22.7748,11.9380,TI_4,threat,0,QUILL,tennis_court,TO,SM,SMI_Hi,2.8749,NR,NR,NR,999.0000
129,4,3,34.7468,9.5309,TO_4,threat,0,OYSTER,pond,TO,H,HO_Hi,2.2345,NR,NR,NR,999.0000
130,4,4,44.3111,11.6779,F,threat,0,WRENCH,foil,TO,FA,FAO_Hi,1.6713,NR,NR,NR,999.0000
131,4,5,56.0227,9.8922,TO_4,threat,0,RICE,basketball_court,TO,H,HO_Hi,1.4774,NR,NR,NR,999.0000
132,4,6,65.9482,9.7581,TI_2,threat,0,MILK,bathroom,TI,H,HI_Hi,2.7859,NR,NR,NR,999.0000
133,4,7,75.7401,9.9263,F,threat,0,HATCHET,foil,F,CR,CR,1.4768,NR,NR,NR,999.0000
134,4,8,85.7005,9.3867,TO_4,threat,0,HAMMER,creek,F,M,MI,0.9273,NR,NR,NR,999.0000
135,4,9,95.1209,9.7509,TI_2,threat,0,FENCE,cockpit,F,M,MI,1.2538,NR,NR,NR,999.0000
136,4,10,104.9049,10.9919,TI_4,threat,0,DESK,ballroom,TO,SM,SMI_Hi,2.6587,NR,NR,NR,999.0000
137,4,11,115.9314,9.4138,TI_2,threat,0,SCROLL,kitchenette,TI,H,HI_Hi,2.1677,NR,NR,NR,999.0000
138,4,12,125.3795,13.3322,TO_2,threat,1,CHOCOLATE,watering_hole,TO,H,HO_Hi,2.3657,NR,NR,NR,999.0000
139,4,13,138.8557,9.8073,TI_4,threat,0,WHEAT,childs_room,TO,SM,SMI_Hi,2.8110,NR,NR,NR,999.0000
140,4,14,148.7005,9.6268,TI_2,threat,0,LANTERN,kindergarden_classroom,TI,H,HI_Hi,2.4810,NR,NR,NR,999.0000
141,4,15,158.3641,9.1401,TO_2,threat,0,SHARK,carrousel,F,M,MI,2.7824,NR,NR,NR,999.0000
142,4,16,167.5408,10.5616,TI_2,threat,0,JACKET,stage,F,M,MI,2.4302,NR,NR,NR,999.0000
143,4,17,178.1398,10.4623,F,threat,0,MONKEY,foil,F,CR,CR,1.1442,NR,NR,NR,999.0000
144,4,18,188.6388,10.6448,TO_4,threat,0,TIGER,forest_needleleaf,TO,H,HO_Hi,1.9120,NR,NR,NR,999.0000
145,4,19,199.3204,12.3160,TO_4,threat,0,TABLE,hot_spring,F,M,MI,1.5045,NR,NR,NR,999.0000
146,4,20,211.6737,11.6148,F,threat,0,SNOW,foil,F,CR,CR,1.9449,NR,NR,NR,999.0000
147,4,21,223.3252,9.9059,TI_4,threat,0,GLOVE,sauna,F,M,MI,3.1552,NR,NR,NR,999.0000
148,4,22,233.2678,9.7994,F,threat,0,STOOL,foil,F,CR,CR,2.7617,NR,NR,NR,999.0000
149,4,23,243.1039,11.2604,TI_2,threat,0,KALE,natural_history_museum,F,M,MI,1.7542,NR,NR,NR,999.0000
150,4,24,254.4014,10.5452,TI_4,threat,0,PUMPKIN,ball_pit,TI,H,HI_Hi,2.3639,NR,NR,NR,999.0000
151,4,25,264.9835,9.6786,F,threat,0,OATMEAL,foil,F,CR,CR,1.3145,NR,NR,NR,999.0000
152,4,26,274.6996,9.1169,TI_2,threat,0,TOWEL,catacomb,F,M,MI,1.1020,NR,NR,NR,999.0000
153,4,27,283.8534,9.1083,F,threat,0,RACQUET,foil,F,CR,CR,1.9386,NR,NR,NR,999.0000
154,4,28,292.9984,10.0883,F,threat,0,ENVELOPE,foil,F,CR,CR,1.0740,NR,NR,NR,999.0000
155,4,29,303.1240,9.7474,TO_2,threat,0,CRADLE,park,F,M,MI,1.0600,NR,NR,NR,999.0000
156,4,30,312.9083,10.3648,TI_4,threat,0,LIGHTNING,laundromat,F,M,MI,2.1663,NR,NR,NR,999.0000
157,4,31,323.3100,10.1894,TO_2,threat,0,PANTS,outhouse,F,M,MI,1.1348,NR,NR,NR,999.0000
158,4,32,333.5369,9.9814,TO_2,threat,0,WAND,excavation,F,M,MI,1.0429,NR,NR,NR,999.0000
159,4,33,343.5551,9.6817,F,threat,0,TEETH,foil,F,CR,CR,1.0597,NR,NR,NR,999.0000
160,4,34,353.2738,9.2478,F,threat,0,SCAB,foil,F,CR,CR,1.4484,NR,NR,NR,999.0000
161,4,35,362.5592,9.3656,F,threat,0,BUCKET,foil,F,CR,CR,1.1863,NR,NR,NR,999.0000
162,4,36,371.9618,9.0939,TO_4,threat,0,LETTUCE,phone_booth,F,M,MI,1.2900,NR,NR,NR,999.0000
163,4,37,381.0920,9.1715,TI_4,threat,0,TRAY,jail_cell,TO,SM,SMI_Lo,2.2671,NR,NR,NR,999.0000
164,4,38,390.3017,9.0497,TO_4,threat,0,DOVE,landing_deck,TO,H,HO_Hi,3.2601,NR,NR,NR,999.0000
165,4,39,399.3885,11.1807,F,threat,0,MEDAL,foil,F,CR,CR,1.7952,NR,NR,NR,999.0000
166,4,40,410.6069,10.0974,F,threat,0,TELEGRAPH,foil,F,CR,CR,1.1826,NR,NR,NR,999.0000
167,4,41,420.7415,9.2675,TO_2,threat,0,SNAIL,raceway,TO,H,HO_Hi,1.7802,NR,NR,NR,999.0000
168,4,42,430.0455,12.3230,F,threat,0,DOLL,foil,F,CR,CR,1.9823,NR,NR,NR,999.0000
169,5,1,12.0063,12.3479,TI_4,safe,0,CHEESE,dorm_room,F,M,MI,1.5985,NR,NR,NR,999.0000
170,5,2,24.3901,11.6749,TI_2,safe,0,CORAL,archive,TO,SM,SMI_Hi,1.9448,NR,NR,NR,999.0000
171,5,3,36.0994,12.3258,F,safe,0,BELL,foil,F,CR,CR,1.6322,NR,NR,NR,999.0000
172,5,4,48.4598,9.1413,TO_2,safe,0,FORK,hayfield,F,M,MI,1.4112,NR,NR,NR,999.0000
173,5,5,57.6351,9.5311,TO_2,safe,0,SEAL,hangar,TI,SM,SMO_Hi,3.0517,NR,NR,NR,999.0000
174,5,6,67.2009,9.6284,TI_2,safe,0,LAMP,biology_laboratory,F,M,MI,1.5138,NR,NR,NR,999.0000
175,5,7,76.8642,11.1811,TI_4,safe,0,BONE,chicken_coop,F,M,MI,1.2867,NR,NR,NR,999.0000
176,5,8,88.0798,9.7590,TO_2,safe,0,CLARINET,hotel,TO,H,HO_Hi,2.7535,NR,NR,NR,999.0000
177,5,9,97.8737,9.2697,TO_4,safe,0,MITTEN,oilrig,F,M,MI,1.8148,NR,NR,NR,999.0000
178,5,10,107.1780,9.9156,TO_2,safe,0,CANDY,river,TO,H,HO_Hi,2.6792,NR,NR,NR,999.0000
179,5,11,117.1282,9.3860,F,safe,0,CANNON,foil,TO,FA,FAO_Hi,2.9719,NR,NR,NR,999.0000
180,5,12,126.5492,10.0917,TI_4,safe,0,GEESE,museum,F,M,MI,1.0767,NR,NR,NR,999.0000
181,5,13,136.6753,10.1009,TI_2,safe,0,ROSE,dentists_office,TO,SM,SMI_Hi,1.3657,NR,NR,NR,999.0000
182,5,14,146.8107,9.0544,F,safe,0,BENCH,foil,TO,FA,FAO_Hi,1.4965,NR,NR,NR,999.0000
183,5,15,155.9004,10.3661,F,safe,0,WORM,foil,F,CR,CR,1.5946,NR,NR,NR,999.0000
184,5,16,166.3010,9.9277,TO_4,safe,0,PASTE,mountain,TO,H,HO_Hi,1.8183,NR,NR,NR,999.0000
185,5,17,176.2633,9.8891,TI_2,safe,0,RABBIT,cafeteria,TO,SM,SMI_Hi,2.8957,NR,NR,NR,999.0000
186,5,18,186.1876,9.8020,F,safe,0,BATON,foil,F,CR,CR,1.4548,NR,NR,NR,999.0000
187,5,19,196.0237,9.7508,F,safe,0,HAM,foil,F,CR,CR,2.2504,NR,NR,NR,999.0000
188,5,20,205.8095,9.4130,TI_2,safe,0,BROWNIE,badminton_court,F,M,MI,1.0496,NR,NR,NR,999.0000
189,5,21,215.2571,11.2613,F,safe,0,NEST,foil,F,CR,CR,3.2139,NR,NR,NR,999.0000
190,5,22,226.5534,9.0952,F,safe,0,TWEEZERS,foil,F,CR,CR,1.4738,NR,NR,NR,999.0000
191,5,23,235.6835,9.9069,TO_4,safe,0,HIGHWAY,corral,F,M,MI,1.1797,NR,NR,NR,999.0000
192,5,24,245.6256,10.5484,TI_4,safe,0,ICICLE,auditorium,TO,SM,SMI_Hi,2.7020,NR,NR,NR,999.0000
193,5,25,256.2087,10.9914,TO_4,safe,0,BANANA,beach,TO,H,HO_Hi,3.4448,NR,NR,NR,999.0000
194,5,26,267.2347,10.7033,F,safe,0,WOLF,foil,F,CR,CR,1.4474,NR,NR,NR,999.0000
195,5,27,277.9728,10.4666,TO_4,safe,0,PIGEON,mountain_snowy,TI,SM,SMO_Hi,3.5978,NR,NR,NR,999.0000
196,5,28,288.4742,9.1104,TO_2,safe,0,OPIUM,field_wild,TO,H,HO_Hi,1.2956,NR,NR,NR,999.0000
197,5,29,297.6189,9.7496,TI_4,safe,0,KILT,cloister,TO,SM,SMI_Hi,1.5837,NR,NR,NR,999.0000
198,5,30,307.4042,11.9365,TO_2,safe,0,SARDINE,basilica,TO,H,HO_Hi,1.6118,NR,NR,NR,999.0000
199,5,31,319.3766,11.3296,F,safe,0,ACCORDIAN,foil,F,CR,CR,1.5165,NR,NR,NR,999.0000
200,5,32,330.7405,9.6814,TO_2,safe,0,ANT,house,TO,H,HO_Hi,2.0284,NR,NR,NR,999.0000
201,5,33,340.4568,9.3698,F,safe,0,STORK,foil,F,CR,CR,1.4557,NR,NR,NR,999.0000
202,5,34,349.8614,9.1204,TI_2,safe,0,BASKET,theater,TI,H,HI_Hi,2.1446,NR,NR,NR,999.0000
203,5,35,359.0166,10.5635,TI_4,safe,0,BARREL,closet,TI,H,HI_Hi,1.8381,NR,NR,NR,999.0000
204,5,36,369.6156,9.1711,TO_4,safe,0,PEARL,greenhouse,TI,SM,SMO_Lo,3.2947,NR,NR,NR,999.0000
205,5,37,378.8216,9.9857,F,safe,0,BROOM,foil,F,CR,CR,2.1416,NR,NR,NR,999.0000
206,5,38,388.8422,10.1907,TI_2,safe,0,BAYONET,home_office,TI,H,HI_Hi,2.0887,NR,NR,NR,999.0000
207,5,39,399.0683,9.2487,F,safe,0,CHICKEN,foil,F,CR,CR,1.5231,NR,NR,NR,999.0000
208,5,40,408.3520,9.6838,TI_4,safe,0,QUAIL,bowling_alley,TI,H,HI_Hi,2.6172,NR,NR,NR,999.0000
209,5,41,418.0708,10.6476,F,safe,0,EAGLE,foil,F,CR,CR,1.3853,NR,NR,NR,999.0000
210,5,42,428.7547,11.6124,TO_4,safe,0,ORNAMENT,islet,F,M,MI,1.9483,NR,NR,NR,999.0000
211,6,1,12.0069,9.0823,TI_4,threat,0,ORCHID,music_studio,TI,H,HI_Hi,2.1044,NR,NR,NR,999.0000
212,6,2,21.1262,9.6820,TO_2,threat,0,SQUIRREL,igloo,F,M,MI,1.4368,NR,NR,NR,999.0000
213,6,3,30.8439,9.1193,TO_4,threat,0,ASPIRIN,bridge,TO,H,HO_Hi,2.0658,NR,NR,NR,999.0000
214,6,4,39.9992,9.8898,F,threat,0,BANDAGE,foil,F,CR,CR,1.5984,NR,NR,NR,999.0000
215,6,5,49.9246,9.1098,TO_2,threat,0,PIANO,dam,TO,H,HO_Hi,1.9828,NR,NR,NR,999.0000
216,6,6,59.0700,9.2480,F,threat,0,SHEEP,foil,F,CR,CR,1.8564,NR,NR,NR,999.0000
217,6,7,68.3536,10.4626,TI_2,threat,0,CLOAK,fastfood_restaurant,F,M,MI,1.4662,NR,NR,NR,999.0000
218,6,8,78.8523,10.5640,TI_2,threat,0,TORNADO,shopping_mall,TI,H,HI_Hi,2.5757,NR,NR,NR,999.0000
219,6,9,89.4519,11.6740,TO_2,threat,0,HOSE,boathouse,TO,H,HO_Hi,3.0995,NR,NR,NR,999.0000
220,6,10,101.1621,9.2690,TO_4,threat,0,BALLOON,canal,TO,H,HO_Hi,2.5374,NR,NR,NR,999.0000
221,6,11,110.4667,9.9823,F,threat,0,ANCHOR,foil,F,CR,CR,1.7646,NR,NR,NR,999.0000
222,6,12,120.4847,10.6466,F,threat,0,NECKLACE,foil,F,CR,CR,2.2789,NR,NR,NR,999.0000
223,6,13,131.1672,12.1920,TI_2,threat,1,RASH,aquarium,NR,NR,NR,999.0000,NR,NR,NR,999.0000
224,6,14,143.3945,9.3837,TO_2,threat,0,BABY,putting_green,F,M,MI,2.8250,NR,NR,NR,999.0000
225,6,15,152.8141,11.6148,TO_2,threat,0,MUFFIN,kasbah,F,M,MI,2.2407,NR,NR,NR,999.0000
226,6,16,164.4653,9.7496,TO_4,threat,0,RUDDER,botanical_garden,TI,SM,SMO_Hi,2.0720,NR,NR,NR,999.0000
227,6,17,174.2516,9.4099,F,threat,0,DETECTIVE,foil,F,CR,CR,1.2259,NR,NR,NR,999.0000
228,6,18,183.6970,10.7039,TI_4,threat,0,WALNUT,restaurant_kitchen,TO,SM,SMI_Hi,3.3394,NR,NR,NR,999.0000
229,6,19,194.4375,9.6797,F,threat,0,ARMOR,foil,F,CR,CR,1.5133,NR,NR,NR,999.0000
230,6,20,204.1530,9.1409,TI_4,threat,0,COFFEE,game_room,F,M,MI,2.8964,NR,NR,NR,999.0000
231,6,21,213.3302,9.6263,F,threat,0,SHOWER,foil,F,CR,CR,2.3142,NR,NR,NR,999.0000
232,6,22,222.9928,10.5456,TO_2,threat,0,SPATULA,athletic_field,TO,H,HO_Hi,2.3014,NR,NR,NR,999.0000
233,6,23,233.5743,9.9168,F,threat,0,SADDLE,foil,F,CR,CR,2.0684,NR,NR,NR,999.0000
234,6,24,243.5271,11.2610,F,threat,0,WALLET,foil,F,CR,CR,2.8269,NR,NR,NR,999.0000
235,6,25,254.8253,9.7526,TI_4,threat,0,SAXOPHONE,jewelry_shop,F,M,MI,2.3645,NR,NR,NR,999.0000
236,6,26,264.6136,12.3200,F,threat,0,SYRUP,foil,F,CR,CR,2.6186,NR,NR,NR,999.0000
237,6,27,276.9697,10.9888,TO_4,threat,0,LAMB,rice_paddy,F,M,MI,1.6380,NR,NR,NR,999.0000
238,6,28,287.9960,9.7459,F,threat,0,SUBMARINE,foil,F,CR,CR,1.4009,NR,NR,NR,999.0000
239,6,29,297.7778,9.1727,TI_2,threat,0,CROWN,bistro,F,M,MI,1.2759,NR,NR,NR,999.0000
240,6,30,306.9865,11.1792,TO_4,threat,0,ZIPPER,boardwalk,TO,H,HO_Hi,2.7575,NR,NR,NR,999.0000
241,6,31,318.2022,12.3232,TI_2,threat,0,PYTHON,athletic_field,TI,H,HI_Hi,2.7295,NR,NR,NR,999.0000
242,6,32,330.5614,9.3675,TI_2,threat,0,ROSARY,television_studio,F,M,MI,1.4883,NR,NR,NR,999.0000
243,6,33,339.9651,9.8019,TI_4,threat,0,KNIFE,attic,TI,H,HI_Hi,1.7583,NR,NR,NR,999.0000
244,6,34,349.8035,10.0998,F,threat,0,ELEPHANT,foil,F,CR,CR,3.8956,NR,NR,NR,999.0000
245,6,35,359.9396,9.0935,TI_4,threat,0,SANDAL,kitchen,TI,H,HI_Hi,2.0428,NR,NR,NR,999.0000
246,6,36,369.0688,9.9067,TO_2,threat,0,NET,garbage_dump,TO,H,HO_Hi,2.1608,NR,NR,NR,999.0000
247,6,37,379.0124,10.0873,TI_2,threat,0,NIGHTGOWN,library,TI,H,HI_Hi,2.1125,NR,NR,NR,999.0000
248,6,38,389.1359,13.9377,F,threat,1,CAMEL,foil,NR,NR,NR,999.0000,NR,NR,NR,999.0000
249,6,39,403.1104,9.5289,TO_4,threat,0,DAISY,harbor,F,M,MI,1.8486,NR,NR,NR,999.0000
250,6,40,412.6751,9.9257,F,threat,0,MANURE,foil,F,CR,CR,1.2822,NR,NR,NR,999.0000
251,6,41,422.6370,11.3295,TI_4,threat,0,HOOK,car_interior,F,M,MI,3.1684,NR,NR,NR,999.0000
252,6,42,434.0031,10.3659,TO_4,threat,0,WALRUS,hot_tub,TO,H,HO_Hi,2.8116,NR,NR,NR,999.0000
