index,run,trial,onset,duration,cond,repType,repCount,word,pic,resp,respRT,ISIresp,ISIrespRT
1,1,1,10.0073,1.9942,WI,4,1,ICICLE,sauna,UR,2.7264,NR,3.0000
2,1,2,22.0642,-10.0624,WI,2,1,BANDAGE,badminton_court,UR,2.9211,NR,3.0000
3,1,3,34.1180,-22.1161,WI,4,1,OATMEAL,art_gallery,UR,1.5194,NR,3.0000
4,1,4,46.1727,-34.1705,WO,2,1,BANANA,igloo,NR,999.0000,UR,3.0391
5,1,5,58.2284,-46.2270,WO,2,1,KNIFE,outhouse,UR,1.3692,NR,3.0000
6,1,6,70.2829,-58.2817,WI,4,1,RASH,cafeteria,UR,1.4471,NR,3.0000
7,1,7,82.3368,-70.3358,WI,2,1,CANE,biology_laboratory,UR,1.5734,NR,3.0000
8,1,8,94.3907,-82.3885,WO,2,1,WALRUS,oilrig,UR,1.3392,NR,3.0000
9,1,9,106.4459,-94.4449,WI,4,1,CHOCOLATE,amusement_arcade,UR,2.8070,NR,3.0000
10,1,10,118.5006,-106.4989,WI,4,1,KALE,subway_interior,UR,1.8150,NR,3.0000
11,1,11,130.5554,-118.5534,WI,4,2,OATMEAL,art_gallery,UR,2.2987,NR,3.0000
12,1,12,142.6105,-130.6087,WO,4,1,SHOVEL,boardwalk,R,2.3601,NR,3.0000
13,1,13,154.6660,-142.6648,WO,4,1,ORANGE,botanical_garden,UR,1.9498,NR,3.0000
14,1,14,166.7202,-154.7190,WO,4,1,HONEY,motel,UR,1.7563,NR,3.0000
15,1,15,178.7751,-166.7734,WI,2,1,CAMEL,shopping_mall,R,2.5376,NR,3.0000
16,1,16,190.8301,-178.8282,WO,2,1,MEDAL,gas_station,UR,2.5687,NR,3.0000
17,1,17,202.8850,-190.8841,WI,4,1,DOVE,restaurant_kitchen,NR,999.0000,NR,3.0000
18,1,18,214.9391,-202.9378,WO,4,1,ANCHOR,moat,R,1.4750,NR,3.0000
19,1,19,226.9937,-214.9930,WI,4,2,CHOCOLATE,amusement_arcade,UR,2.1693,NR,3.0000
20,1,20,239.0482,-227.0474,WO,4,1,TIGER,field_wild,UR,1.4841,NR,3.0000
21,1,21,251.1023,-239.1015,WO,4,2,ORANGE,botanical_garden,UR,1.3932,NR,3.0000
22,1,22,263.1561,-251.1543,WO,2,1,LIME,highway,UR,1.8848,UR,10.4241
23,1,23,275.2116,-263.2102,WI,2,1,TRIBE,laundromat,UR,1.8354,NR,3.0000
24,1,24,287.2662,-275.2641,WO,4,1,ACROBAT,ruin,R,1.7458,NR,3.0000
25,1,25,299.3219,-287.3198,WO,4,2,TIGER,field_wild,UR,1.4795,UR,10.9692
26,1,26,311.3772,-299.3759,WO,4,1,WALLET,cliff,UR,2.4125,NR,3.0000
27,1,27,323.4316,-311.4295,WI,2,1,LANTERN,hospital_room,UR,2.1227,NR,3.0000
28,1,28,335.4876,-323.4860,WI,4,1,VODKA,florist_shop,UR,1.4795,NR,3.0000
29,1,29,347.5424,-335.5405,WO,4,2,SHOVEL,boardwalk,R,0.9557,NR,3.0000
30,1,30,359.5981,-347.5961,WI,4,2,RASH,cafeteria,UR,1.2337,NR,3.0000
31,1,31,371.6532,-359.6506,WI,4,2,DOVE,restaurant_kitchen,UR,1.6074,NR,3.0000
32,1,32,383.7089,-371.7079,WO,2,1,GOAT,raceway,UR,1.5898,NR,3.0000
33,1,33,395.7636,-383.7623,WO,2,1,LAMB,greenhouse,R,1.4107,NR,3.0000
34,1,34,407.8184,-395.8162,WO,4,2,HONEY,motel,UR,1.2485,NR,3.0000
35,1,35,419.8743,-407.8725,WI,4,2,VODKA,florist_shop,UR,1.9270,NR,3.0000
36,1,36,431.9292,-419.9277,WO,4,2,ANCHOR,moat,R,2.7480,NR,3.0000
37,1,37,443.9840,-431.9822,WI,2,1,HIGHWAY,kitchenette,UR,1.7919,NR,3.0000
38,1,38,456.0396,-444.0378,WI,2,1,BONE,closet,UR,1.8796,NR,3.0000
39,1,39,468.0947,-456.0934,WI,4,2,ICICLE,sauna,UR,2.0299,NR,3.0000
40,1,40,480.1500,-468.1486,WO,4,2,WALLET,cliff,UR,1.4442,NR,3.0000
41,1,41,492.2045,-480.2024,WI,4,2,KALE,subway_interior,UR,2.7288,NR,3.0000
42,1,42,504.2598,-492.2586,WO,4,2,ACROBAT,ruin,R,1.8780,NR,3.0000
43,2,19,10.0010,2.0013,WI,4,1,BROWNIE,shoe_shop,UR,2.0254,NR,3.0000
44,2,20,22.0609,-10.0597,WI,4,1,GLOBE,bowling_alley,UR,2.5288,NR,3.0000
45,2,21,34.1179,-22.1172,WO,4,1,KILT,amphitheater,R,1.8367,NR,3.0000
46,2,22,46.1740,-34.1724,WO,4,1,HOOK,carrousel,UR,2.0906,NR,3.0000
47,2,23,58.2312,-46.2298,WI,2,1,PIANO,toyshop,UR,1.8630,NR,3.0000
48,2,24,70.2876,-58.2865,WO,4,1,ROPE,hayfield,R,2.0130,NR,3.0000
49,2,25,82.3436,-70.3418,WO,4,1,BIBLE,cottage_garden,R,1.5380,NR,3.0000
50,2,26,94.4012,-82.3991,WO,4,2,BIBLE,cottage_garden,R,1.9187,NR,3.0000
51,2,27,106.4585,-94.4567,WI,4,2,BROWNIE,shoe_shop,UR,1.8143,NR,3.0000
52,2,28,118.5158,-106.5141,WO,2,1,PUMPKIN,excavation,UR,1.7946,NR,3.0000
53,2,29,130.5725,-118.5716,WI,4,1,POWDER,kindergarden_classroom,UR,1.9796,NR,3.0000
54,2,30,142.6285,-130.6266,WI,4,1,THONG,jewelry_shop,UR,2.6143,NR,3.0000
55,2,31,154.6858,-142.6849,WI,4,2,POWDER,kindergarden_classroom,UR,2.7757,NR,3.0000
56,2,32,166.7412,-154.7395,WO,4,1,CRADLE,office_building,UR,1.4538,NR,3.0000
57,2,33,178.7982,-166.7967,WO,2,1,EAGLE,crevasse,UR,1.8877,NR,3.0000
58,2,34,190.8546,-178.8533,WO,4,1,SALAD,hot_spring,UR,2.4291,NR,3.0000
59,2,35,202.9104,-190.9084,WI,4,2,GLOBE,bowling_alley,UR,1.3866,UR,8.4632
60,2,36,214.9686,-202.9677,WI,4,1,QUARTER,throne_room,UR,2.0086,NR,3.0000
61,2,37,227.0242,-215.0234,WO,2,1,DOLL,orchard,R,2.3102,NR,3.0000
62,2,38,239.0803,-227.0789,WI,4,1,POSTER,train_station,R,1.7819,NR,3.0000
63,2,39,251.1363,-239.1344,WO,2,1,OLIVE,boathouse,UR,2.2850,NR,3.0000
64,2,40,263.1932,-251.1918,WO,4,2,CRADLE,office_building,UR,2.6492,NR,3.0000
65,2,41,275.2498,-263.2486,WI,4,2,THONG,jewelry_shop,UR,1.0960,NR,3.0000
66,2,42,287.3060,-275.3048,WO,2,1,PAN,oil_refinery,UR,1.8056,NR,3.0000
67,2,43,299.3633,-287.3620,WI,2,1,SOAP,engine_room,R,2.3158,NR,3.0000
68,2,44,311.4196,-299.4177,WO,4,2,HOOK,carrousel,UR,1.0802,UR,3.3864
69,2,45,323.4766,-311.4752,WO,4,1,MAGICIAN,pavilion,R,1.7251,NR,3.0000
70,2,46,335.5339,-323.5319,WI,2,1,CANDY,cathedral,UR,2.9245,NR,3.0000
71,2,47,347.5913,-335.5895,WO,2,1,STOMACH,formal_garden,UR,1.5690,UR,7.5967
72,2,48,359.6486,-347.6467,WI,4,1,SEAWEED,boxing_ring,UR,1.7434,NR,3.0000
73,2,49,371.7055,-359.7040,WI,2,1,SQUIRREL,game_room,UR,1.3529,UR,3.0519
74,2,50,383.7619,-371.7601,WO,4,2,KILT,amphitheater,R,1.5309,NR,3.0000
75,2,51,395.8193,-383.8183,WI,2,1,DETECTIVE,squash_court,UR,2.5348,NR,3.0000
76,2,52,407.8753,-395.8732,WI,4,2,QUARTER,throne_room,UR,2.2372,NR,3.0000
77,2,53,419.9329,-407.9313,WO,2,1,PEDAL,putting_green,UR,2.9550,NR,3.0000
78,2,54,431.9895,-419.9877,WI,2,1,WORM,synagogue,UR,2.9300,NR,3.0000
79,2,55,444.0460,-432.0446,WO,4,2,MAGICIAN,pavilion,R,1.2719,NR,3.0000
80,2,56,456.1026,-444.1005,WO,4,2,SALAD,hot_spring,UR,1.3165,UR,7.5224
81,2,57,468.1594,-456.1586,WI,4,2,POSTER,train_station,R,1.4839,NR,3.0000
82,2,58,480.2154,-468.2138,WO,4,2,ROPE,hayfield,R,1.6010,NR,3.0000
83,2,59,492.2716,-480.2698,WI,4,2,SEAWEED,boxing_ring,UR,1.2575,NR,3.0000
84,2,60,504.3282,-492.3264,WI,2,1,QUAIL,restaurant,R,2.0913,NR,3.0000
85,3,37,10.0011,2.0003,WO,4,1,COFFEE,rice_paddy,UR,1.9092,NR,3.0000
86,3,38,22.0688,-10.0679,WO,2,1,QUILT,patio,UR,2.6862,NR,3.0000
87,3,39,34.1354,-22.1339,WI,4,1,MITTEN,banquet_hall,UR,2.5671,NR,3.0000
88,3,40,46.2017,-34.2006,WI,2,1,CAGE,television_studio,UR,2.5087,NR,3.0000
89,3,41,58.2686,-46.2673,WO,4,1,VIOLIN,basketball_court,UR,2.4711,NR,3.0000
90,3,42,70.3349,-58.3326,WI,4,1,DESK,parlor,R,2.0673,NR,3.0000
91,3,43,82.3847,-70.3816,WO,4,1,OTTER,manufactured_home,UR,2.2318,NR,3.0000
92,3,44,233.7939,-221.7921,WI,4,1,SCREWDRIVER,dorm_room,R,2.2402,NR,3.0000
93,3,45,245.8655,-233.8640,WI,4,1,WALNUT,cloister,UR,1.9407,NR,3.0000
94,3,46,257.9322,-245.9314,WO,4,1,WINE,harbor,R,2.0416,NR,3.0000
95,3,47,269.9986,-257.9969,WO,2,1,FAN,boat_deck,UR,2.3027,NR,3.0000
96,3,48,282.0655,-270.0638,WI,4,2,MITTEN,banquet_hall,UR,2.2632,NR,3.0000
97,3,49,294.1326,-282.1318,WI,2,1,HOSE,swimming_pool,R,1.6076,NR,3.0000
98,3,50,306.1990,-294.1982,WO,4,2,COFFEE,rice_paddy,UR,1.9395,NR,3.0000
99,3,51,318.2643,-306.2630,WO,2,1,WRENCH,canal,UR,1.5451,NR,3.0000
100,3,52,330.3311,-318.3293,WI,4,1,RACQUET,ball_pit,UR,2.7102,NR,3.0000
101,3,53,342.3979,-330.3964,WO,2,1,ROSARY,campsite,UR,2.2924,NR,3.0000
102,3,54,354.4648,-342.4640,WO,4,1,FENCE,mosque,NR,999.0000,NR,3.0000
103,3,55,366.5305,-354.5293,WI,2,1,EASEL,music_studio,UR,1.3579,NR,3.0000
104,3,56,378.5969,-366.5956,WO,4,2,VIOLIN,basketball_court,UR,0.9480,NR,3.0000
105,3,57,390.6641,-378.6621,WI,4,2,RACQUET,ball_pit,UR,1.1836,NR,3.0000
106,3,58,402.7311,-390.7298,WI,4,2,DESK,parlor,R,1.5169,NR,3.0000
107,3,59,414.7976,-402.7958,WI,4,1,LIGHTNING,supermarket,UR,2.2102,NR,3.0000
108,3,60,426.8651,-414.8639,WO,2,1,PIGEON,basilica,R,1.4398,UR,11.5853
109,3,61,438.9317,-426.9303,WO,4,2,OTTER,manufactured_home,UR,1.1813,NR,3.0000
110,3,62,450.9990,-438.9968,WO,4,2,FENCE,mosque,R,1.0727,NR,3.0000
111,3,63,463.0667,-451.0651,WI,4,1,OMELET,auto_factory,UR,2.0737,NR,3.0000
112,3,64,475.1334,-463.1314,WI,4,2,OMELET,auto_factory,UR,1.0311,NR,3.0000
113,3,65,487.2011,-475.2000,WO,4,1,SNOW,fountain,UR,1.6553,NR,3.0000
114,3,66,499.2673,-487.2664,WI,2,1,BUCKET,jail_cell,R,2.1179,NR,3.0000
115,3,67,511.3340,-499.3318,WO,4,1,MAP,crosswalk,R,1.6506,NR,3.0000
116,3,68,523.4012,-511.3994,WI,4,2,WALNUT,cloister,UR,2.3098,NR,3.0000
117,3,69,535.4701,-523.4692,WO,4,2,WINE,harbor,R,2.7237,NR,3.0000
118,3,70,547.5371,-535.5340,WI,2,1,EYE,bar,UR,1.9757,NR,3.0000
119,3,71,559.6055,-547.6038,WI,4,2,LIGHTNING,supermarket,UR,1.8790,NR,3.0000
120,3,72,571.6727,-559.6711,WI,2,1,OPIUM,fastfood_restaurant,R,2.4315,NR,3.0000
121,3,73,583.7395,-571.7378,WO,2,1,DUST,field_cultivated,UR,1.4620,NR,3.0000
122,3,74,595.8064,-583.8052,WI,2,1,SPONGE,bus_interior,R,1.8711,NR,3.0000
123,3,75,607.8728,-595.8710,WO,4,2,MAP,crosswalk,R,1.3252,NR,3.0000
124,3,76,619.9400,-607.9388,WO,4,2,SNOW,fountain,UR,0.7789,NR,3.0000
125,3,77,632.0070,-620.0051,WO,2,1,MEDICINE,rock_arch,UR,1.3574,UR,10.5038
126,3,78,644.0743,-632.0722,WI,4,2,SCREWDRIVER,dorm_room,R,2.4654,NR,3.0000
127,4,55,10.0022,1.9990,WI,2,1,BROOM,athletic_field,UR,1.5672,NR,3.0000
128,4,56,22.0465,-10.0457,WO,4,1,ELEPHANT,cabin,UR,1.4610,NR,3.0000
129,4,57,34.0886,-22.0877,WI,4,1,ORCHID,gymnasium,UR,1.6446,UR,8.0160
130,4,58,46.1483,-34.1471,WI,2,1,SADDLE,brewery,UR,1.5610,NR,3.0000
131,4,59,58.2065,-46.2057,WI,4,1,CLAM,hotel_room,UR,2.1385,NR,3.0000
132,4,60,70.2649,-58.2629,WO,4,1,SANDAL,fishpond,R,2.0146,NR,3.0000
133,4,61,82.3238,-70.3216,WO,4,1,TURTLE,fire_station,UR,1.9165,NR,3.0000
134,4,62,94.3828,-82.3813,WO,4,2,ELEPHANT,cabin,UR,2.1864,NR,3.0000
135,4,63,106.4418,-94.4399,WI,4,1,HAWK,bazaar,UR,1.6280,NR,3.0000
136,4,64,118.5007,-106.4990,WI,4,1,DRUG,galley,R,2.7385,NR,3.0000
137,4,65,130.5598,-118.5591,WI,2,1,HAMMER,stage,R,2.1437,NR,3.0000
138,4,66,142.6179,-130.6171,WO,4,1,ASPIRIN,herb_garden,UR,2.0284,NR,3.0000
139,4,67,154.6771,-142.6754,WO,4,1,HAM,landing_deck,UR,1.7958,NR,3.0000
140,4,68,166.7359,-154.7344,WI,2,1,PANTS,dining_room,R,1.8553,NR,3.0000
141,4,69,178.7946,-166.7935,WO,2,1,LAMP,mausoleum,UR,2.3991,NR,3.0000
142,4,70,190.8527,-178.8505,WO,4,2,HAM,landing_deck,UR,1.2884,NR,3.0000
143,4,71,202.9122,-190.9102,WI,4,2,HAWK,bazaar,UR,2.6208,NR,3.0000
144,4,72,214.9714,-202.9693,WI,2,1,ANT,stable,R,1.8652,NR,3.0000
145,4,73,227.0307,-215.0286,WO,4,2,TURTLE,fire_station,UR,1.4474,NR,3.0000
146,4,74,239.0899,-227.0892,WO,4,2,ASPIRIN,herb_garden,UR,1.9802,NR,3.0000
147,4,75,251.1483,-239.1472,WI,4,1,MILK,ice_cream_parlor,R,2.1314,NR,3.0000
148,4,76,263.2067,-251.2058,WI,4,1,TABLE,archive,UR,1.8378,NR,3.0000
149,4,77,275.2651,-263.2640,WO,2,1,SOCK,barn,UR,1.6034,NR,3.0000
150,4,78,287.3234,-275.3225,WO,2,1,BRACELET,chalet,UR,2.7108,UR,11.1137
151,4,79,299.3815,-287.3803,WO,2,1,QUILL,balcony,R,2.2281,NR,3.0000
152,4,80,311.4403,-299.4384,WI,4,1,CORAL,butchers_shop,UR,2.0845,UR,8.4253
153,4,81,323.4993,-311.4982,WO,4,1,SHELL,hangar,UR,2.5598,NR,3.0000
154,4,82,335.5583,-323.5565,WO,4,2,SHELL,hangar,UR,1.0995,NR,6.0087
155,4,83,347.6178,-335.6161,WI,4,2,CORAL,butchers_shop,UR,1.8656,UR,4.1808
156,4,84,359.6771,-347.6762,WO,2,1,SNAIL,rope_bridge,UR,1.2323,NR,3.0000
157,4,85,371.7357,-359.7343,WI,4,2,MILK,ice_cream_parlor,R,0.9878,NR,3.0000
158,4,86,383.7952,-371.7937,WO,4,1,OWL,beach,UR,1.2900,UR,3.2686
159,4,87,395.8548,-383.8532,WI,4,2,DRUG,galley,R,2.4990,NR,3.0000
160,4,88,407.9138,-395.9126,WO,4,2,OWL,beach,UR,1.2828,NR,3.0000
161,4,89,419.9724,-407.9712,WI,4,2,ORCHID,gymnasium,UR,1.7588,NR,3.0000
162,4,90,432.0313,-420.0298,WI,4,2,TABLE,archive,NR,999.0000,UR,3.1524
163,4,91,444.0902,-432.0882,WI,4,2,CLAM,hotel_room,UR,1.4199,UR,3.0151
164,4,92,456.1504,-444.1484,WO,4,2,SANDAL,fishpond,R,1.4019,NR,3.0000
165,4,93,468.2103,-456.2094,WI,2,1,CANNON,optician,UR,1.7018,NR,3.0000
166,4,94,480.2688,-468.2674,WO,2,1,SPATULA,ice_floe,UR,1.9238,NR,3.0000
167,4,95,492.3281,-480.3262,WO,2,1,PIE,house,R,2.1954,NR,3.0000
168,4,96,504.3876,-492.3864,WI,2,1,NECKLACE,music_store,UR,1.5825,NR,3.0000
169,5,73,10.0020,1.9999,WO,4,1,RICE,marsh,UR,1.4012,NR,3.0000
170,5,74,22.0678,-10.0658,WI,2,1,BENCH,drugstore,UR,1.3089,NR,3.0000
171,5,75,34.1319,-22.1300,WI,4,1,CEREAL,kitchen,R,2.5225,NR,3.0000
172,5,76,46.1968,-34.1958,WI,4,1,SOOT,playroom,UR,1.5140,NR,3.0000
173,5,77,58.2596,-46.2570,WO,2,1,SHARK,picnic_area,UR,1.9544,NR,3.0000
174,5,78,70.3214,-58.3196,WO,4,1,TYPEWRITER,river,UR,1.6933,NR,3.0000
175,5,79,82.3881,-70.3872,WI,4,1,NAPKIN,childs_room,UR,2.1101,NR,3.0000
176,5,80,94.4506,-82.4496,WO,4,1,TOWEL,forest_path,UR,2.3804,UR,11.1514
177,5,81,106.5138,-94.5118,WI,4,1,GLOVE,escalator,UR,1.8029,NR,3.0000
178,5,82,118.5773,-106.5749,WI,2,1,CUCUMBER,parking_garage,UR,1.5802,NR,3.0000
179,5,83,130.6418,-118.6391,WO,4,1,NIGHTGOWN,pond,UR,1.7851,NR,3.0000
180,5,84,142.7061,-130.7041,WI,2,1,MOON,nursery,R,1.5487,NR,8.7507
181,5,85,154.7698,-142.7684,WO,2,1,LION,observatory,UR,2.5738,NR,3.0000
182,5,86,166.8333,-154.8325,WO,4,1,PYTHON,amusement_park,UR,1.7191,NR,3.0000
183,5,87,178.8957,-166.8947,WI,4,1,SAXOPHONE,classroom,UR,2.9290,NR,3.0000
184,5,88,190.9586,-178.9573,WO,4,1,STOOL,bullring,UR,1.5372,NR,3.0000
185,5,89,203.0220,-191.0203,WO,2,1,SCORPION,butte,R,1.8400,NR,3.0000
186,5,90,215.0857,-203.0840,WI,4,2,GLOVE,escalator,UR,1.5499,NR,3.0000
187,5,91,227.1507,-215.1491,WO,2,1,TEETH,pasture,R,2.5770,NR,3.0000
188,5,92,239.2147,-227.2138,WO,2,1,WAND,playground,UR,2.3260,NR,3.0000
189,5,93,251.2789,-239.2764,WI,2,1,DIAMOND,locker_room,UR,1.7405,UR,3.0393
190,5,94,263.3438,-251.3413,WO,4,2,TOWEL,forest_path,UR,2.3124,NR,3.0000
191,5,95,275.4084,-263.4071,WO,4,2,STOOL,bullring,UR,0.8534,NR,3.0000
192,5,96,287.4726,-275.4714,WI,2,1,SHRIMP,orchestra_pit,UR,1.7548,NR,3.0000
193,5,97,299.5361,-287.5341,WI,4,2,SAXOPHONE,classroom,UR,1.2365,NR,3.0000
194,5,98,311.6012,-299.5998,WI,4,2,SOOT,playroom,UR,1.1145,NR,3.0000
195,5,99,323.6651,-311.6631,WO,4,2,TYPEWRITER,river,UR,2.6380,NR,3.0000
196,5,100,335.7293,-323.7262,WI,4,1,BRAIN,ballroom,UR,1.7482,NR,3.0000
197,5,101,347.7954,-335.7943,WI,2,1,RAKE,burial_chamber,UR,1.6316,NR,3.0000
198,5,102,359.8590,-347.8565,WO,4,2,NIGHTGOWN,pond,UR,2.3554,NR,3.0000
199,5,103,371.9247,-359.9227,WI,4,2,NAPKIN,childs_room,UR,2.9122,NR,3.0000
200,5,104,383.9894,-371.9883,WO,4,1,JACKET,mountain_snowy,R,1.4756,NR,3.0000
201,5,105,396.0526,-384.0514,WI,4,1,CANDLE,chicken_coop,UR,2.2070,NR,3.0000
202,5,106,408.1168,-396.1150,WO,2,1,BOAT,badlands,UR,1.7272,NR,3.0000
203,5,107,420.1809,-408.1798,WO,2,1,CLARINET,corn_field,UR,2.5662,NR,3.0000
204,5,108,432.2449,-420.2437,WI,4,2,CEREAL,kitchen,R,1.3097,NR,7.1737
205,5,109,444.3083,-432.3074,WI,4,2,CANDLE,chicken_coop,UR,1.0221,NR,3.0000
206,5,110,456.3715,-444.3695,WI,2,1,KEG,casino,R,1.9954,NR,3.0000
207,5,111,468.4367,-456.4345,WO,4,2,JACKET,mountain_snowy,R,0.8087,NR,3.0000
208,5,112,480.5013,-468.4999,WO,4,2,RICE,marsh,UR,1.0618,UR,10.4258
209,5,113,492.5658,-480.5646,WI,4,2,BRAIN,ballroom,UR,1.3310,NR,3.0000
210,5,114,504.6297,-492.6287,WO,4,2,PYTHON,amusement_park,UR,1.7462,NR,3.0000
211,6,91,10.0020,1.9999,WO,4,1,TROLLEY,baseball_field,UR,1.9993,UR,9.9320
212,6,92,22.0717,-10.0702,WI,4,1,YACHT,assembly_line,UR,2.4295,NR,3.0000
213,6,93,34.1400,-22.1392,WI,4,2,YACHT,assembly_line,UR,1.4734,NR,3.0000
214,6,94,46.2071,-34.2064,WI,2,1,GARBAGE,bathroom,R,2.1837,NR,3.0000
215,6,95,58.2746,-46.2728,WO,4,1,PASTE,islet,UR,1.3878,NR,3.0000
216,6,96,70.3431,-58.3410,WO,4,1,CANARY,lido_deck,UR,2.1864,NR,3.0000
217,6,97,82.4118,-70.4094,WI,4,1,SAIL,cubicle,UR,2.2228,NR,3.0000
218,6,98,94.4762,-82.4729,WO,2,1,TOBACCO,iceberg,UR,2.5359,NR,3.0000
219,6,99,106.5525,-94.5507,WI,4,1,MUSSEL,airplane_cabin,UR,1.6760,NR,3.0000
220,6,100,118.6204,-106.6182,WO,2,1,SLIPPER,creek,UR,2.4514,NR,3.0000
221,6,101,130.6900,-118.6891,WI,2,1,TOAST,movie_theater,UR,1.4880,NR,3.0000
222,6,102,142.7572,-130.7560,WO,4,1,GORILLA,power_plant,UR,1.6857,NR,3.0000
223,6,103,154.8258,-142.8244,WO,2,1,PENNY,hill,UR,2.1219,NR,3.0000
224,6,104,166.8939,-154.8907,WO,4,2,CANARY,lido_deck,UR,1.3916,NR,3.0000
225,6,105,178.9631,-166.9618,WI,4,1,ROSE,volleyball_court,UR,1.2368,NR,3.0000
226,6,106,191.0316,-179.0305,WI,4,1,NEST,clothing_store,UR,1.8080,NR,3.0000
227,6,107,203.0989,-191.0970,WO,2,1,GEESE,gazebo,UR,2.2295,NR,3.0000
228,6,108,215.1671,-203.1654,WI,4,1,BOOT,catacomb,R,2.3320,NR,3.0000
229,6,109,227.2351,-215.2335,WI,2,1,ALLIGATOR,cockpit,UR,1.6653,NR,3.0000
230,6,110,239.3031,-227.3014,WI,4,2,BOOT,catacomb,R,1.6374,NR,3.0000
231,6,111,251.3716,-239.3699,WO,4,1,TULIP,inn,UR,1.8835,NR,3.0000
232,6,112,263.4395,-251.4386,WI,4,2,ROSE,volleyball_court,UR,1.1042,NR,3.0000
233,6,113,275.5073,-263.5050,WO,4,1,CRAB,corral,UR,1.5735,NR,3.0000
234,6,114,287.5761,-275.5747,WI,2,1,SEAL,bedroom,UR,1.8585,NR,3.0000
235,6,115,299.6438,-287.6429,WO,4,1,UMBRELLA,lighthouse,UR,1.9128,NR,3.0000
236,6,116,311.7121,-299.7108,WO,4,2,TULIP,inn,UR,0.9958,NR,3.0000
237,6,117,323.7796,-311.7774,WI,4,1,FROG,theater,UR,2.4341,NR,3.0000
238,6,118,335.8490,-323.8469,WI,2,1,CLOAK,tennis_court,UR,1.9427,NR,3.0000
239,6,119,347.9184,-335.9163,WO,4,2,TROLLEY,baseball_field,UR,1.3480,NR,3.0000
240,6,120,359.9873,-347.9855,WO,2,1,ROCK,dam,NR,999.0000,UR,3.2314
241,6,121,372.0566,-360.0545,WO,4,2,UMBRELLA,lighthouse,UR,1.0086,NR,3.0000
242,6,122,384.1253,-372.1231,WI,2,1,MANURE,baggage_claim,UR,1.4867,UR,3.9134
243,6,123,396.1942,-384.1919,WO,2,1,BALLOON,fire_escape,UR,1.7966,NR,3.0000
244,6,124,408.2629,-396.2614,WO,2,1,FLASK,forest_needleleaf,UR,1.2155,NR,3.0000
245,6,125,420.3310,-408.3293,WI,4,2,FROG,theater,UR,2.0331,NR,3.0000
246,6,126,432.3999,-420.3974,WO,4,2,GORILLA,power_plant,UR,1.5448,NR,3.0000
247,6,127,444.4689,-432.4666,WI,4,2,SAIL,cubicle,UR,1.5300,NR,3.0000
248,6,128,456.5380,-444.5356,WI,4,2,NEST,clothing_store,UR,1.8595,NR,3.0000
249,6,129,468.6068,-456.6056,WI,4,2,MUSSEL,airplane_cabin,UR,1.9850,NR,3.0000
250,6,130,480.6743,-468.6728,WO,4,2,CRAB,corral,UR,1.5922,NR,3.0000
251,6,131,492.7429,-480.7412,WO,4,2,PASTE,islet,UR,2.2506,NR,3.0000
252,6,132,504.8108,-492.8091,WI,2,1,TRAY,auditorium,UR,1.9596,NR,3.0000
253,7,109,10.0048,1.9971,WO,4,3,ACROBAT,ruin,NR,999.0000,UR,3.3144
254,7,110,22.0664,-10.0655,WO,4,3,TIGER,field_wild,UR,1.2209,NR,3.0000
255,7,111,34.1246,-22.1229,WI,4,3,OATMEAL,art_gallery,UR,1.1041,NR,3.0000
256,7,112,46.1836,-34.1825,WI,2,2,HIGHWAY,kitchenette,UR,1.4647,NR,3.0000
257,7,113,58.2426,-46.2407,WO,4,3,HONEY,motel,UR,2.9755,NR,3.0000
258,7,114,70.3018,-58.3006,WI,2,2,BONE,closet,UR,1.5729,NR,3.0000
259,7,115,82.3604,-70.3583,WO,2,2,KNIFE,outhouse,UR,2.8105,NR,3.0000
260,7,116,94.4195,-82.4187,WI,4,3,DOVE,restaurant_kitchen,UR,1.5407,NR,3.0000
261,7,117,106.4772,-94.4754,WI,4,3,VODKA,florist_shop,UR,1.4857,NR,3.0000
262,7,118,118.5203,-106.5184,WO,4,3,ANCHOR,moat,UR,1.4925,NR,3.0000
263,7,119,130.5631,-118.5620,WI,2,2,CANE,biology_laboratory,UR,1.5258,NR,3.0000
264,7,120,142.6241,-130.6230,WI,4,3,ICICLE,sauna,UR,2.2343,NR,3.0000
265,7,121,154.6817,-142.6805,WO,4,3,WALLET,cliff,UR,1.6298,NR,3.0000
266,7,122,166.7396,-154.7380,WO,2,2,LIME,highway,NR,999.0000,UR,3.2548
267,7,123,178.7982,-166.7966,WO,4,3,SHOVEL,boardwalk,UR,2.6234,R,3.1957
268,7,124,190.8563,-178.8539,WI,2,2,CAMEL,shopping_mall,R,2.2708,NR,3.0000
269,7,125,202.9159,-190.9149,WO,2,2,GOAT,raceway,UR,1.1237,NR,3.0000
270,7,126,214.9736,-202.9716,WI,4,3,CHOCOLATE,amusement_arcade,UR,1.6363,NR,3.0000
271,7,127,227.0322,-215.0306,WI,2,2,LANTERN,hospital_room,UR,1.8965,NR,3.0000
272,7,128,239.0906,-227.0877,WO,2,2,LAMB,greenhouse,R,1.2984,NR,3.0000
273,7,129,251.1502,-239.1486,WO,2,2,BANANA,igloo,UR,1.1774,NR,3.0000
274,7,130,263.2095,-251.2077,WO,2,2,MEDAL,gas_station,UR,1.6786,NR,3.0000
275,7,131,275.2687,-263.2674,WI,4,3,RASH,cafeteria,UR,1.3847,NR,3.0000
276,7,132,287.3269,-275.3247,WO,2,2,WALRUS,oilrig,R,1.6217,NR,3.0000
277,7,133,299.3871,-287.3860,WI,2,2,TRIBE,laundromat,UR,1.9798,NR,3.0000
278,7,134,311.4458,-299.4441,WO,4,4,TIGER,field_wild,UR,1.7779,NR,3.0000
279,7,135,323.5060,-311.5046,WI,4,3,KALE,subway_interior,UR,2.1260,NR,3.0000
280,7,136,335.5649,-323.5631,WI,4,4,DOVE,restaurant_kitchen,UR,1.3249,NR,3.0000
281,7,137,347.6240,-335.6232,WO,4,3,ORANGE,botanical_garden,UR,1.2806,NR,3.0000
282,7,138,359.6831,-347.6809,WO,4,4,HONEY,motel,UR,1.0556,NR,3.0000
283,7,139,371.7430,-359.7408,WO,4,4,SHOVEL,boardwalk,R,1.1088,NR,3.0000
284,7,140,383.8035,-371.8018,WI,4,4,VODKA,florist_shop,UR,2.0346,UR,4.4602
285,7,141,395.8628,-383.8618,WI,4,4,ICICLE,sauna,NR,1.1508,NR,3.0000
286,7,142,407.9212,-395.9185,WI,4,4,OATMEAL,art_gallery,UR,1.3334,NR,4.8797
287,7,143,419.9818,-407.9794,WO,4,4,WALLET,cliff,UR,1.0897,NR,3.0000
288,7,144,432.0415,-420.0401,WI,4,4,CHOCOLATE,amusement_arcade,UR,1.2648,NR,3.0000
289,7,145,444.1007,-432.0993,WI,4,4,RASH,cafeteria,UR,1.4266,NR,3.0000
290,7,146,456.1596,-444.1583,WO,4,4,ANCHOR,moat,UR,0.8633,NR,3.0000
291,7,147,468.2184,-456.2163,WO,4,4,ACROBAT,ruin,R,2.4264,NR,3.0000
292,7,148,480.2784,-468.2769,WI,4,4,KALE,subway_interior,UR,2.2026,NR,3.0000
293,7,149,492.3372,-480.3353,WI,2,2,BANDAGE,badminton_court,UR,1.0929,NR,3.0000
294,7,150,504.3973,-492.3962,WO,4,4,ORANGE,botanical_garden,UR,1.7047,NR,3.0000
295,8,127,10.0025,1.9990,WI,4,3,GLOBE,bowling_alley,UR,2.0890,NR,3.0000
296,8,128,22.0708,-10.0697,WI,4,3,POSTER,train_station,R,1.9656,NR,3.0000
297,8,129,34.1374,-22.1360,WI,4,4,POSTER,train_station,R,0.8908,NR,3.0000
298,8,130,46.2040,-34.2028,WO,4,3,ROPE,hayfield,UR,2.6086,NR,3.0000
299,8,131,58.2705,-46.2698,WO,2,2,PUMPKIN,excavation,NR,1.2449,NR,11.1287
300,8,132,70.3364,-58.3353,WO,4,3,KILT,amphitheater,R,1.6741,NR,3.0000
301,8,133,82.4025,-70.4015,WI,4,3,POWDER,kindergarden_classroom,UR,1.5848,NR,3.0000
302,8,134,94.4696,-82.4673,WO,4,3,HOOK,carrousel,UR,1.7576,NR,3.0000
303,8,135,106.5361,-94.5346,WI,2,2,PIANO,toyshop,UR,2.5474,NR,3.0000
304,8,136,118.6045,-106.6026,WO,4,4,HOOK,carrousel,UR,1.0787,UR,5.5386
305,8,137,130.6707,-118.6696,WO,4,4,ROPE,hayfield,R,1.0053,NR,3.0000
306,8,138,142.7361,-130.7341,WI,4,3,QUARTER,throne_room,UR,0.8800,NR,3.0000
307,8,139,154.8035,-142.8025,WI,2,2,CANDY,cathedral,UR,2.1242,NR,3.0000
308,8,140,166.8694,-154.8682,WO,2,2,PEDAL,putting_green,UR,2.0696,NR,3.0000
309,8,141,178.9351,-166.9343,WO,4,4,KILT,amphitheater,R,2.5314,NR,3.0000
310,8,142,191.0012,-178.9995,WI,4,3,BROWNIE,shoe_shop,UR,2.5920,NR,3.0000
311,8,143,203.0676,-191.0657,WI,2,2,WORM,synagogue,UR,2.1248,NR,3.0000
312,8,144,215.1351,-203.1334,WO,4,3,MAGICIAN,pavilion,R,1.2921,R,4.8058
313,8,145,227.2021,-215.2012,WO,2,2,DOLL,orchard,R,1.5121,NR,3.0000
314,8,146,239.2684,-227.2665,WO,4,3,CRADLE,office_building,UR,1.6605,NR,3.0000
315,8,147,251.3361,-239.3349,WI,2,2,SQUIRREL,game_room,UR,1.8859,NR,3.0000
316,8,148,263.4025,-251.4014,WO,2,2,PAN,oil_refinery,UR,1.8198,NR,3.0000
317,8,149,275.4688,-263.4670,WI,2,2,SOAP,engine_room,R,1.7070,NR,3.0000
318,8,150,287.5358,-275.5347,WI,4,4,BROWNIE,shoe_shop,UR,1.5202,NR,3.0000
319,8,151,299.6072,-287.6058,WO,4,3,BIBLE,cottage_garden,R,1.5700,NR,3.0000
320,8,152,311.6735,-299.6726,WO,4,3,SALAD,hot_spring,UR,1.7803,NR,3.0000
321,8,153,323.7391,-311.7372,WO,2,2,STOMACH,formal_garden,UR,1.5538,NR,3.0000
322,8,154,335.8071,-323.8052,WI,4,4,POWDER,kindergarden_classroom,UR,1.5206,NR,3.0000
323,8,155,347.8735,-335.8715,WO,4,4,MAGICIAN,pavilion,R,1.1281,NR,3.0000
324,8,156,359.9407,-347.9374,WI,4,3,SEAWEED,boxing_ring,UR,1.7414,NR,3.0000
325,8,157,372.0085,-360.0064,WI,4,4,SEAWEED,boxing_ring,UR,1.9587,NR,3.0000
326,8,158,384.0753,-372.0733,WO,4,4,SALAD,hot_spring,UR,1.8512,NR,3.0000
327,8,159,396.1426,-384.1414,WI,4,3,THONG,jewelry_shop,UR,1.1456,NR,3.0000
328,8,160,408.2086,-396.2065,WO,2,2,OLIVE,boathouse,UR,1.3829,UR,7.3044
329,8,161,420.2760,-408.2749,WO,2,2,EAGLE,crevasse,UR,1.8676,NR,3.0000
330,8,162,432.3425,-420.3404,WI,2,2,DETECTIVE,squash_court,UR,1.7761,NR,3.0000
331,8,163,444.4101,-432.4094,WI,2,2,QUAIL,restaurant,R,2.1249,UR,9.8237
332,8,164,456.4771,-444.4763,WO,4,4,BIBLE,cottage_garden,R,2.8178,NR,3.0000
333,8,165,468.5436,-456.5416,WI,4,4,QUARTER,throne_room,UR,1.8879,NR,3.0000
334,8,166,480.6115,-468.6098,WO,4,4,CRADLE,office_building,UR,0.9077,UR,11.1839
335,8,167,492.6786,-480.6760,WI,4,4,THONG,jewelry_shop,UR,1.5456,NR,3.0000
336,8,168,504.7466,-492.7449,WI,4,4,GLOBE,bowling_alley,UR,2.5651,UR,6.6813
337,9,145,10.0029,2.0000,WI,4,3,LIGHTNING,supermarket,UR,1.6187,NR,3.0000
338,9,146,22.0712,-10.0696,WO,4,3,MAP,crosswalk,R,1.8335,NR,3.0000
339,9,147,34.1356,-22.1329,WI,2,2,CAGE,television_studio,UR,1.3244,UR,3.6405
340,9,148,46.2014,-34.1980,WO,4,3,SNOW,fountain,UR,1.7220,NR,3.0000
341,9,149,58.2685,-46.2666,WO,2,2,ROSARY,campsite,UR,2.0884,NR,3.0000
342,9,150,70.3337,-58.3318,WI,4,4,LIGHTNING,supermarket,UR,0.8527,NR,3.0000
343,9,151,82.3991,-70.3974,WO,4,3,WINE,harbor,R,1.9385,NR,3.0000
344,9,152,94.4642,-82.4627,WO,2,2,PIGEON,basilica,R,2.8304,R,3.1846
345,9,153,106.5293,-94.5281,WI,4,3,SCREWDRIVER,dorm_room,R,1.5488,NR,3.0000
346,9,154,118.5943,-106.5913,WO,4,3,FENCE,mosque,R,2.1454,NR,3.0000
347,9,155,130.6608,-118.6597,WI,4,3,DESK,parlor,R,1.4230,NR,3.0000
348,9,156,142.7258,-130.7238,WI,4,3,WALNUT,cloister,UR,1.3156,NR,3.0000
349,9,157,154.7912,-142.7901,WO,4,3,COFFEE,rice_paddy,NR,999.0000,UR,3.1154
350,9,158,166.8559,-154.8535,WI,4,3,OMELET,auto_factory,UR,0.9421,NR,3.0000
351,9,159,178.9224,-166.9191,WO,4,3,VIOLIN,basketball_court,UR,1.4337,NR,3.0000
352,9,160,190.9889,-178.9875,WI,4,3,MITTEN,banquet_hall,UR,1.2148,NR,3.0000
353,9,161,203.0545,-191.0519,WI,4,3,RACQUET,ball_pit,UR,0.7906,UR,5.7116
354,9,162,215.1200,-203.1172,WO,2,2,MEDICINE,rock_arch,UR,0.7792,UR,10.8465
355,9,163,227.1863,-215.1842,WI,2,2,SPONGE,bus_interior,R,2.5673,NR,3.0000
356,9,164,239.2525,-227.2513,WI,2,2,HOSE,swimming_pool,R,2.9646,NR,3.0000
357,9,165,251.3170,-239.3157,WO,4,4,MAP,crosswalk,R,2.3261,NR,3.0000
358,9,166,263.3822,-251.3807,WI,4,4,SCREWDRIVER,dorm_room,R,2.2668,NR,3.0000
359,9,167,275.4470,-263.4455,WO,4,4,VIOLIN,basketball_court,NR,999.0000,UR,3.9089
360,9,168,287.5126,-275.5112,WO,2,2,FAN,boat_deck,UR,1.6106,NR,3.0000
361,9,169,299.5774,-287.5758,WO,4,4,COFFEE,rice_paddy,UR,1.1979,NR,3.0000
362,9,170,311.6423,-299.6412,WI,4,4,RACQUET,ball_pit,UR,1.0295,NR,3.0000
363,9,171,323.7070,-311.7050,WO,4,4,SNOW,fountain,UR,1.7523,NR,3.0000
364,9,172,335.7716,-323.7705,WI,4,4,WALNUT,cloister,UR,1.6431,NR,3.0000
365,9,173,347.8362,-335.8350,WI,2,2,OPIUM,fastfood_restaurant,UR,2.9825,R,3.0742
366,9,174,359.9000,-347.8985,WI,4,4,MITTEN,banquet_hall,R,2.6586,NR,3.0000
367,9,175,371.9642,-359.9622,WO,4,3,OTTER,manufactured_home,UR,1.2098,UR,9.2918
368,9,176,384.0298,-372.0287,WI,2,2,EASEL,music_studio,UR,1.2372,NR,3.0000
369,9,177,396.0941,-384.0932,WO,4,4,OTTER,manufactured_home,UR,1.3144,NR,7.8703
370,9,178,408.1589,-396.1571,WI,4,4,OMELET,auto_factory,UR,2.8729,NR,3.0000
371,9,179,420.2237,-408.2225,WO,4,4,FENCE,mosque,R,2.0291,UR,5.2237
372,9,180,432.2879,-420.2856,WI,2,2,EYE,bar,UR,2.5151,UR,7.0140
373,9,181,444.3531,-432.3521,WO,4,4,WINE,harbor,R,1.1447,NR,3.0000
374,9,182,456.4173,-444.4161,WI,4,4,DESK,parlor,R,1.2045,NR,3.0000
375,9,183,468.4829,-456.4807,WO,2,2,QUILT,patio,UR,1.9632,NR,3.0000
376,9,184,480.5487,-468.5468,WI,2,2,BUCKET,jail_cell,R,1.6725,NR,3.0000
377,9,185,492.6141,-480.6124,WO,2,2,DUST,field_cultivated,R,2.2455,NR,3.0000
378,9,186,504.6799,-492.6782,WO,2,2,WRENCH,canal,UR,2.9286,UR,3.1167
379,10,163,10.0029,1.9989,WO,4,3,ASPIRIN,herb_garden,UR,2.0354,NR,3.0000
380,10,164,22.0673,-10.0661,WI,4,3,CLAM,hotel_room,UR,2.0118,NR,3.0000
381,10,165,34.1286,-22.1268,WO,2,2,PIE,house,R,2.1454,NR,3.0000
382,10,166,46.1906,-34.1896,WI,4,3,HAWK,bazaar,UR,1.7837,NR,3.0000
383,10,167,58.2521,-46.2505,WI,4,3,ORCHID,gymnasium,UR,2.4792,NR,3.0000
384,10,168,70.3135,-58.3125,WO,4,3,SANDAL,fishpond,NR,999.0000,R,3.1345
385,10,169,82.3753,-70.3740,WI,2,2,CANNON,optician,UR,1.0564,NR,3.0000
386,10,170,94.4366,-82.4357,WO,4,3,OWL,beach,UR,1.9674,NR,3.0000
387,10,171,106.4976,-94.4964,WO,2,2,SOCK,barn,UR,1.5401,NR,3.0000
388,10,172,118.5593,-106.5583,WI,2,2,HAMMER,stage,R,1.8739,NR,3.0000
389,10,173,130.6202,-118.6173,WO,4,3,HAM,landing_deck,UR,1.3819,NR,3.0000
390,10,174,142.6835,-130.6810,WI,4,3,CORAL,butchers_shop,UR,2.4199,NR,3.0000
391,10,175,154.7462,-142.7447,WI,2,2,NECKLACE,music_store,UR,1.5559,NR,3.0000
392,10,176,166.7925,-154.7906,WO,4,3,ELEPHANT,cabin,UR,1.2984,NR,3.0000
393,10,177,178.8584,-166.8566,WI,4,4,CLAM,hotel_room,UR,1.5686,NR,3.0000
394,10,178,190.9204,-178.9196,WO,2,2,QUILL,balcony,R,1.9027,NR,3.0000
395,10,179,202.9819,-190.9800,WO,4,4,SANDAL,fishpond,R,2.4605,NR,3.0000
396,10,180,215.0441,-203.0424,WO,4,3,SHELL,hangar,UR,1.7729,NR,3.0000
397,10,181,227.1059,-215.1036,WI,4,3,TABLE,archive,UR,1.4680,NR,3.0000
398,10,182,239.1690,-227.1675,WI,4,4,HAWK,bazaar,UR,1.5193,NR,3.0000
399,10,183,251.2301,-239.2294,WO,2,2,BRACELET,chalet,UR,1.6287,NR,3.0000
400,10,184,263.2910,-251.2903,WI,2,2,SADDLE,brewery,UR,1.3817,NR,3.0000
401,10,185,275.3511,-263.3496,WI,4,3,DRUG,galley,R,1.5200,NR,3.0000
402,10,186,287.4121,-275.4110,WO,4,3,TURTLE,fire_station,UR,1.5190,NR,3.0000
403,10,187,299.4737,-287.4717,WI,4,4,CORAL,butchers_shop,UR,1.4764,NR,3.0000
404,10,188,311.5354,-299.5327,WO,4,4,OWL,beach,UR,1.8202,NR,3.0000
405,10,189,323.5988,-311.5978,WO,2,2,SNAIL,rope_bridge,UR,0.7892,NR,3.0000
406,10,190,335.6599,-323.6587,WO,4,4,SHELL,hangar,UR,1.3217,NR,3.0000
407,10,191,347.7210,-335.7201,WI,2,2,PANTS,dining_room,R,1.7510,NR,3.0000
408,10,192,359.7822,-347.7805,WI,4,4,TABLE,archive,UR,1.1912,NR,3.0000
409,10,193,371.8438,-359.8423,WI,4,4,DRUG,galley,R,1.3789,NR,3.0000
410,10,194,383.9057,-371.9046,WO,2,2,LAMP,mausoleum,UR,2.2433,NR,3.0000
411,10,195,395.9664,-383.9648,WI,4,4,ORCHID,gymnasium,UR,2.2907,NR,3.0000
412,10,196,408.0276,-396.0245,WO,2,2,SPATULA,ice_floe,NR,999.0000,UR,3.1176
413,10,197,420.0906,-408.0886,WO,4,4,TURTLE,fire_station,UR,0.9595,NR,3.0000
414,10,198,432.1520,-420.1507,WI,2,2,BROOM,athletic_field,UR,1.6215,NR,3.0000
415,10,199,444.2135,-432.2119,WI,2,2,ANT,stable,R,1.9971,NR,3.0000
416,10,200,456.2751,-444.2719,WO,4,4,ASPIRIN,herb_garden,UR,1.2073,NR,3.0000
417,10,201,468.3382,-456.3363,WO,4,4,HAM,landing_deck,UR,2.3038,NR,3.0000
418,10,202,480.4002,-468.3989,WI,4,3,MILK,ice_cream_parlor,R,1.7331,NR,3.0000
419,10,203,492.4613,-480.4598,WI,4,4,MILK,ice_cream_parlor,R,2.1374,NR,3.0000
420,10,204,504.5231,-492.5218,WO,4,4,ELEPHANT,cabin,UR,1.9041,NR,3.0000
421,11,181,10.0060,1.9955,WO,4,3,PYTHON,amusement_park,UR,1.9671,NR,3.0000
422,11,182,22.0727,-10.0707,WO,4,3,NIGHTGOWN,pond,UR,1.6323,NR,3.0000
423,11,183,34.1375,-22.1357,WI,4,3,BRAIN,ballroom,UR,1.9397,NR,3.0000
424,11,184,46.2019,-34.2008,WI,2,2,CUCUMBER,parking_garage,UR,2.6835,NR,3.0000
425,11,185,58.2657,-46.2648,WO,4,3,TOWEL,forest_path,UR,2.2706,NR,3.0000
426,11,186,70.3287,-58.3279,WO,4,3,JACKET,mountain_snowy,R,1.5829,NR,3.0000
427,11,187,82.3925,-70.3910,WO,4,3,RICE,marsh,UR,1.2069,NR,3.0000
428,11,188,94.4568,-82.4558,WI,4,3,CEREAL,kitchen,R,1.5804,NR,3.0000
429,11,189,106.5207,-94.5175,WI,4,3,SOOT,playroom,UR,2.6649,NR,3.0000
430,11,190,118.5869,-106.5855,WO,2,2,SHARK,picnic_area,UR,1.2073,NR,3.0000
431,11,191,130.6508,-118.6497,WI,2,2,MOON,nursery,R,2.9642,NR,3.0000
432,11,192,142.7154,-130.7146,WI,4,3,GLOVE,escalator,UR,1.3792,NR,3.0000
433,11,193,154.7786,-142.7773,WO,4,4,NIGHTGOWN,pond,UR,1.3759,NR,3.0000
434,11,194,166.8426,-154.8416,WI,2,2,BENCH,drugstore,UR,1.4324,NR,3.0000
435,11,195,178.9068,-166.9049,WO,4,3,STOOL,bullring,UR,2.1021,NR,3.0000
436,11,196,190.9704,-178.9693,WI,4,3,NAPKIN,childs_room,UR,2.8870,NR,3.0000
437,11,197,203.0210,-191.0184,WO,2,2,CLARINET,corn_field,UR,1.7237,NR,3.0000
438,11,198,215.0882,-203.0862,WI,2,2,KEG,casino,R,1.7180,NR,3.0000
439,11,199,227.1531,-215.1512,WO,4,4,STOOL,bullring,UR,2.7169,UR,3.1197
440,11,200,239.2176,-227.2163,WI,4,3,SAXOPHONE,classroom,UR,1.8405,NR,3.0000
441,11,201,251.2808,-239.2799,WI,4,4,SOOT,playroom,UR,1.8415,NR,3.0000
442,11,202,263.3442,-251.3417,WO,4,3,TYPEWRITER,river,UR,1.8236,NR,3.0000
443,11,203,275.4087,-263.4066,WI,2,2,RAKE,burial_chamber,UR,1.0084,NR,3.0000
444,11,204,287.4726,-275.4715,WI,4,4,CEREAL,kitchen,R,1.0962,NR,3.0000
445,11,205,299.5362,-287.5341,WI,4,4,BRAIN,ballroom,UR,1.9815,NR,3.0000
446,11,206,311.6003,-299.5989,WO,2,2,BOAT,badlands,UR,1.2956,NR,3.0000
447,11,207,323.6645,-311.6634,WI,4,4,GLOVE,escalator,UR,2.2800,NR,3.0000
448,11,208,335.7278,-323.7266,WO,4,4,JACKET,mountain_snowy,R,2.9530,R,3.0989
449,11,209,347.7912,-335.7893,WO,2,2,SCORPION,butte,R,1.6822,NR,3.0000
450,11,210,359.8558,-347.8549,WI,4,4,NAPKIN,childs_room,UR,2.0765,NR,3.0000
451,11,211,371.9190,-359.9182,WO,4,4,PYTHON,amusement_park,UR,1.8075,NR,3.0000
452,11,212,383.9825,-371.9809,WI,2,2,DIAMOND,locker_room,UR,1.4740,NR,3.0000
453,11,213,396.0462,-384.0442,WI,4,3,CANDLE,chicken_coop,UR,1.5476,UR,10.8850
454,11,214,408.1103,-396.1090,WI,2,2,SHRIMP,orchestra_pit,UR,1.3985,NR,3.0000
455,11,215,420.1744,-408.1728,WO,4,4,RICE,marsh,UR,1.6285,NR,3.0000
456,11,216,432.2383,-420.2371,WO,4,4,TYPEWRITER,river,UR,1.5587,NR,3.0000
457,11,217,444.3024,-432.3012,WO,4,4,TOWEL,forest_path,UR,0.9934,UR,5.1658
458,11,218,456.3658,-444.3643,WI,4,4,SAXOPHONE,classroom,UR,1.1067,NR,3.0000
459,11,219,468.4295,-456.4285,WO,2,2,TEETH,pasture,UR,2.4630,R,3.2828
460,11,220,480.4935,-468.4916,WI,4,4,CANDLE,chicken_coop,UR,2.6105,NR,3.0000
461,11,221,492.5576,-480.5565,WO,2,2,LION,observatory,UR,1.4997,NR,3.0000
462,11,222,504.6216,-492.6198,WO,2,2,WAND,playground,UR,1.4846,NR,3.0000
463,12,199,10.0039,1.9974,WO,2,2,TOBACCO,iceberg,UR,2.3991,NR,3.0000
464,12,200,22.0793,-10.0785,WI,4,3,BOOT,catacomb,R,2.7425,NR,3.0000
465,12,201,34.1518,-22.1500,WO,4,3,UMBRELLA,lighthouse,UR,1.1299,NR,3.0000
466,12,202,46.2261,-34.2241,WI,4,4,BOOT,catacomb,R,1.6379,NR,3.0000
467,12,203,58.3002,-46.2990,WO,4,4,UMBRELLA,lighthouse,UR,0.9325,NR,3.0000
468,12,204,70.3731,-58.3714,WO,4,3,CANARY,lido_deck,UR,1.2961,NR,3.0000
469,12,205,82.4470,-70.4449,WI,4,3,MUSSEL,airplane_cabin,UR,1.8767,NR,3.0000
470,12,206,94.5210,-82.5190,WI,4,3,FROG,theater,UR,1.1254,NR,3.0000
471,12,207,106.5956,-94.5948,WO,4,3,GORILLA,power_plant,UR,2.3934,NR,3.0000
472,12,208,118.6682,-106.6664,WO,4,3,CRAB,corral,UR,2.2174,NR,3.0000
473,12,209,130.7413,-118.7393,WI,4,3,SAIL,cubicle,UR,2.1312,NR,3.0000
474,12,210,142.8151,-130.8134,WO,4,3,TROLLEY,baseball_field,UR,2.0466,NR,3.0000
475,12,211,154.8881,-142.8872,WI,4,3,YACHT,assembly_line,UR,1.6307,NR,3.0000
476,12,212,166.9611,-154.9590,WO,2,2,PENNY,hill,UR,1.5962,NR,3.0000
477,12,213,179.0348,-167.0327,WI,4,4,SAIL,cubicle,UR,1.8957,NR,3.0000
478,12,214,191.1085,-179.1072,WO,4,4,CRAB,corral,UR,1.2534,NR,3.0000
479,12,215,203.1824,-191.1812,WO,2,2,BALLOON,fire_escape,UR,0.8503,NR,3.0000
480,12,216,215.2557,-203.2534,WO,4,3,TULIP,inn,UR,0.8224,NR,3.0000
481,12,217,227.3301,-215.3276,WI,4,3,ROSE,volleyball_court,UR,2.3338,NR,3.0000
482,12,218,239.4038,-227.4020,WI,4,3,NEST,clothing_store,UR,1.4754,NR,3.0000
483,12,219,251.4772,-239.4763,WI,2,2,SEAL,bedroom,UR,1.1912,UR,6.4992
484,12,220,263.5498,-251.5480,WO,2,2,FLASK,forest_needleleaf,UR,1.4461,NR,3.0000
485,12,221,275.6233,-263.6217,WO,2,2,GEESE,gazebo,UR,2.2203,NR,3.0000
486,12,222,287.6968,-275.6957,WO,4,4,CANARY,lido_deck,UR,1.3501,NR,3.0000
487,12,223,299.7693,-287.7675,WI,4,4,ROSE,volleyball_court,UR,1.8822,NR,4.2138
488,12,224,311.8426,-299.8411,WI,4,4,MUSSEL,airplane_cabin,UR,2.1346,NR,3.0000
489,12,225,323.9168,-311.9158,WI,2,2,GARBAGE,bathroom,UR,2.3091,R,3.1503
490,12,226,335.9893,-323.9874,WO,2,2,ROCK,dam,UR,2.4643,R,3.0597
491,12,227,348.0634,-336.0619,WI,2,2,ALLIGATOR,cockpit,UR,1.3163,NR,3.0000
492,12,228,360.1364,-348.1345,WI,4,4,NEST,clothing_store,UR,1.5537,NR,3.0000
493,12,229,372.2098,-360.2080,WI,2,2,TOAST,movie_theater,UR,2.3987,NR,3.0000
494,12,230,384.2836,-372.2825,WO,4,4,TROLLEY,baseball_field,UR,2.4376,UR,5.2394
495,12,231,396.3563,-384.3543,WI,2,2,MANURE,baggage_claim,UR,1.5288,UR,11.3362
496,12,232,408.4299,-396.4291,WI,2,2,CLOAK,tennis_court,UR,1.9530,NR,3.0000
497,12,233,420.5023,-408.5014,WO,2,2,SLIPPER,creek,UR,1.7488,UR,8.2598
498,12,234,432.5744,-420.5725,WO,4,4,GORILLA,power_plant,UR,1.3990,UR,11.5353
499,12,235,444.6485,-432.6471,WI,4,4,YACHT,assembly_line,UR,1.5042,NR,3.0000
500,12,236,456.7213,-444.7194,WO,4,3,PASTE,islet,UR,2.7137,NR,3.0000
501,12,237,468.7955,-456.7940,WI,4,4,FROG,theater,UR,0.6959,UR,4.5549
502,12,238,480.8693,-468.8670,WI,2,2,TRAY,auditorium,UR,1.5411,NR,3.0000
503,12,239,492.9436,-480.9418,WO,4,4,TULIP,inn,UR,2.8799,UR,10.3642
504,12,240,505.0170,-493.0153,WO,4,4,PASTE,islet,UR,1.0052,NR,3.0000
