index,run,trial,onset,duration,cond,repType,repCount,word,pic,resp,respRT,ISIresp,ISIrespRT
1,1,1,10.0062,1.9975,WO,2,1,SARDINE,basilica,UR,1.3949,NR,3.0000
2,1,2,22.0663,-10.0644,WO,4,1,POWDER,lido_deck,R,1.3702,NR,3.0000
3,1,3,34.1211,-22.1202,WO,4,1,SCREWDRIVER,marsh,UR,1.4243,NR,3.0000
4,1,4,46.1756,-34.1744,WI,2,1,POSTER,casino,R,2.1026,NR,3.0000
5,1,5,58.2312,-46.2295,WI,4,1,MEDICINE,chicken_coop,R,1.7318,NR,3.0000
6,1,6,70.2867,-58.2854,WO,2,1,CORAL,balcony,UR,2.8408,NR,3.0000
7,1,7,82.3418,-70.3401,WO,4,1,SHRIMP,baseball_field,UR,1.5250,NR,3.0000
8,1,8,94.3972,-82.3954,WI,4,1,KNIFE,limousine_interior,R,1.7881,NR,3.0000
9,1,9,106.4530,-94.4517,WO,2,1,SALAD,bamboo_forest,UR,2.3076,NR,3.0000
10,1,10,118.5087,-106.5076,WO,4,1,TABLE,crosswalk,UR,2.1120,NR,3.0000
11,1,11,130.5636,-118.5613,WI,4,1,BAYONET,childs_room,NR,999.0000,UR,3.2563
12,1,12,142.6198,-130.6176,WI,2,1,ARROW,baggage_claim,R,1.1390,NR,3.0000
13,1,13,154.6766,-142.6744,WI,4,1,RAKE,bistro,UR,1.7361,NR,3.0000
14,1,14,166.7326,-154.7311,WO,4,2,TABLE,crosswalk,UR,2.8070,NR,3.0000
15,1,15,178.7884,-166.7872,WO,4,2,SHRIMP,baseball_field,UR,2.9315,NR,3.0000
16,1,16,190.8436,-178.8414,WI,2,1,OTTER,drugstore,UR,1.8970,NR,3.0000
17,1,17,202.8997,-190.8985,WI,4,2,RAKE,bistro,UR,2.0227,NR,3.0000
18,1,18,214.9559,-202.9538,WI,2,1,FENCE,cathedral,UR,1.9885,NR,3.0000
19,1,19,227.0119,-215.0109,WO,4,1,WRENCH,campsite,UR,2.2351,NR,3.0000
20,1,20,239.0676,-227.0658,WO,4,1,FIRE,creek,UR,2.0646,NR,3.0000
21,1,21,251.1234,-239.1213,WI,4,1,BEAVER,natural_history_museum,R,2.3831,NR,3.0000
22,1,22,263.1792,-251.1783,WO,4,1,SOCK,cabin,R,2.5987,NR,3.0000
23,1,23,275.2349,-263.2331,WI,2,1,DESK,apse,R,2.0448,NR,3.0000
24,1,24,287.2907,-275.2890,WO,4,2,WRENCH,campsite,UR,2.4970,NR,3.0000
25,1,25,299.3470,-287.3446,WI,2,1,WITCH,throne_room,R,1.9678,NR,3.0000
26,1,26,311.4036,-299.4022,WO,4,2,POWDER,lido_deck,R,1.9015,NR,3.0000
27,1,27,323.4592,-311.4571,WI,4,1,STAPLER,kennel,UR,2.6359,NR,3.0000
28,1,28,335.5163,-323.5139,WI,4,2,MEDICINE,chicken_coop,R,2.0806,NR,3.0000
29,1,29,347.5727,-335.5712,WO,2,1,TYPEWRITER,forest_path,UR,1.7736,NR,3.0000
30,1,30,359.6287,-347.6280,WO,2,1,SHARK,office_building,UR,1.9179,NR,3.0000
31,1,31,371.6836,-359.6807,WO,4,2,SOCK,cabin,R,2.3210,NR,3.0000
32,1,32,383.7406,-371.7396,WI,2,1,SCORPION,catacomb,UR,2.8339,NR,3.0000
33,1,33,395.7962,-383.7934,WI,4,2,KNIFE,limousine_interior,R,1.7073,NR,3.0000
34,1,34,407.8531,-395.8515,WO,2,1,ROPE,corral,R,1.6485,NR,3.0000
35,1,35,419.9096,-407.9073,WO,4,2,FIRE,creek,UR,2.3127,NR,3.0000
36,1,36,431.9662,-419.9648,WI,4,2,BAYONET,childs_room,UR,2.4357,UR,3.1123
37,1,37,444.0216,-432.0208,WO,4,2,SCREWDRIVER,marsh,UR,1.6352,NR,3.0000
38,1,38,456.0768,-444.0746,WI,4,2,STAPLER,kennel,UR,2.2566,NR,3.0000
39,1,39,468.1331,-456.1321,WI,4,1,DAISY,bookstore,R,2.5250,NR,3.0000
40,1,40,480.1889,-468.1880,WO,2,1,ASPIRIN,aqueduct,UR,2.1473,UR,3.1753
41,1,41,492.2440,-480.2425,WI,4,2,DAISY,bookstore,UR,2.3052,NR,3.0000
42,1,42,504.2997,-492.2977,WI,4,2,BEAVER,natural_history_museum,R,0.9268,NR,3.0000
43,2,19,10.0009,2.0004,WI,4,1,DRUG,art_studio,R,1.8754,NR,3.0000
44,2,20,22.0653,-10.0642,WI,2,1,APPLE,airplane_cabin,R,1.7221,NR,3.0000
45,2,21,34.1282,-22.1261,WO,4,1,PUDDLE,hill,UR,2.0389,NR,3.0000
46,2,22,46.1917,-34.1896,WO,4,1,ACCORDIAN,mountain,R,1.7636,NR,3.0000
47,2,23,58.2550,-46.2536,WO,4,2,ACCORDIAN,mountain,R,2.9840,NR,3.0000
48,2,24,70.3184,-58.3153,WI,4,2,DRUG,art_studio,R,1.0308,NR,3.0000
49,2,25,82.3829,-70.3818,WO,4,2,PUDDLE,hill,UR,1.4505,NR,3.0000
50,2,26,94.4458,-82.4444,WI,2,1,SUBMARINE,music_studio,UR,1.8250,NR,3.0000
51,2,27,106.5085,-94.5067,WI,4,1,CRADLE,jacuzzi,UR,1.3902,NR,3.0000
52,2,28,118.5718,-106.5697,WO,4,1,SNAIL,ice_floe,UR,1.3462,NR,3.0000
53,2,29,130.6360,-118.6342,WO,2,1,ZIPPER,construction_site,UR,1.4876,NR,3.0000
54,2,30,142.6990,-130.6957,WO,2,1,TWEEZERS,cliff,UR,2.8467,NR,3.0000
55,2,31,154.7525,-142.7505,WI,4,1,DOLL,cafeteria,UR,1.4034,NR,3.0000
56,2,32,166.8159,-154.8131,WO,2,1,SCOTCH,hot_tub,R,2.3528,NR,3.0000
57,2,33,178.8805,-166.8786,WO,2,1,FLASK,general_store,R,1.2146,NR,3.0000
58,2,34,190.9439,-178.9412,WO,4,1,BASKET,cottage_garden,R,1.1162,NR,3.0000
59,2,35,203.0079,-191.0051,WI,4,1,DOUGHNUT,beauty_salon,UR,1.7521,NR,3.0000
60,2,36,215.0724,-203.0704,WO,2,1,MOUSE,iceberg,UR,1.5343,NR,3.0000
61,2,37,227.1360,-215.1346,WI,4,2,DOLL,cafeteria,UR,1.5945,NR,3.0000
62,2,38,239.1993,-227.1978,WI,4,1,GEESE,athletic_field,UR,1.4574,NR,3.0000
63,2,39,251.2622,-239.2613,WO,4,1,WORM,fire_station,NR,999.0000,UR,3.9934
64,2,40,263.3246,-251.3225,WI,4,1,DAMSEL,cubicle,UR,1.6905,NR,3.0000
65,2,41,275.3891,-263.3883,WO,2,1,BANDIT,heliport,R,1.4157,NR,3.0000
66,2,42,287.4517,-275.4496,WI,4,1,WALLET,library,R,1.7576,NR,3.0000
67,2,43,299.5151,-287.5139,WI,2,1,ORCHID,cockpit,R,2.5396,NR,3.0000
68,2,44,311.5786,-299.5764,WI,2,1,ALLIGATOR,elevator,UR,1.7996,NR,3.0000
69,2,45,323.6422,-311.6402,WO,4,1,GLOVE,crevasse,UR,2.1488,NR,3.0000
70,2,46,335.7064,-323.7057,WO,4,2,BASKET,cottage_garden,R,2.7117,NR,3.0000
71,2,47,347.7690,-335.7668,WI,4,2,DAMSEL,cubicle,UR,2.9102,UR,3.0734
72,2,48,359.8329,-347.8311,WO,4,2,SNAIL,ice_floe,UR,2.0110,NR,3.0000
73,2,49,371.8969,-359.8961,WI,4,2,CRADLE,jacuzzi,UR,1.2676,NR,3.0000
74,2,50,383.9594,-371.9572,WI,2,1,TELEGRAPH,archive,UR,1.9060,NR,3.0000
75,2,51,396.0239,-384.0221,WI,4,2,DOUGHNUT,beauty_salon,UR,1.8510,NR,3.0000
76,2,52,408.0871,-396.0862,WO,4,1,PYTHON,pagoda,R,1.7309,NR,3.0000
77,2,53,420.1497,-408.1486,WO,4,2,WORM,fire_station,UR,1.2805,NR,3.0000
78,2,54,432.2123,-420.2100,WI,4,2,GEESE,athletic_field,UR,1.2114,NR,3.0000
79,2,55,444.2776,-432.2760,WO,2,1,PIGEON,field_cultivated,UR,2.6978,NR,3.0000
80,2,56,456.3425,-444.3405,WI,4,2,WALLET,library,R,1.1475,NR,3.0000
81,2,57,468.4061,-456.4053,WO,4,2,PYTHON,pagoda,R,1.2998,NR,3.0000
82,2,58,480.4699,-468.4689,WI,2,1,QUILL,computer_room,UR,2.8948,NR,3.0000
83,2,59,492.5330,-480.5309,WI,2,1,THONG,jail_cell,UR,2.3160,NR,3.0000
84,2,60,504.5969,-492.5948,WO,4,2,GLOVE,crevasse,UR,1.0326,NR,3.0000
85,3,37,151.8233,-139.8218,WI,4,1,CAGE,optician,UR,2.5041,NR,3.0000
86,3,38,163.8820,-151.8808,WI,2,1,MONKEY,parking_garage,UR,1.1340,NR,3.0000
87,3,39,175.9396,-163.9376,WO,2,1,NEEDLE,chalet,UR,1.2832,NR,3.0000
88,3,40,187.9972,-175.9954,WI,4,1,KALE,hospital_room,UR,2.6727,NR,3.0000
89,3,41,200.0549,-188.0537,WO,4,1,MANURE,landing_deck,UR,1.6976,NR,3.0000
90,3,42,212.1123,-200.1107,WI,4,1,STOOL,cloister,R,1.7590,NR,3.0000
91,3,43,224.1696,-212.1676,WI,2,1,EASEL,stable,NR,999.0000,NR,3.0000
92,3,44,236.2273,-224.2252,WO,4,1,DETECTIVE,fountain,UR,1.4967,NR,3.0000
93,3,45,248.2861,-236.2846,WO,4,1,NOODLE,driving_range,UR,1.3044,NR,3.0000
94,3,46,260.3437,-248.3428,WO,4,1,VINE,pasture,R,1.5626,NR,3.0000
95,3,47,272.4003,-260.3989,WI,4,1,WINE,florist_shop,R,1.9270,NR,3.0000
96,3,48,284.4573,-272.4564,WO,4,2,DETECTIVE,fountain,UR,2.2826,NR,3.0000
97,3,49,296.5145,-284.5137,WO,2,1,KILT,butte,UR,1.6208,NR,3.0000
98,3,50,308.5709,-296.5694,WO,4,1,SPATULA,orchard,UR,1.3984,NR,3.0000
99,3,51,320.6283,-308.6265,WI,2,1,EMPEROR,playroom,UR,1.2415,NR,3.0000
100,3,52,332.6858,-320.6847,WO,4,2,NOODLE,driving_range,UR,1.1544,NR,3.0000
101,3,53,344.7425,-332.7402,WI,4,1,TROLLEY,bowling_alley,UR,1.3155,NR,3.0000
102,3,54,356.8013,-344.7991,WI,2,1,WOLF,supermarket,UR,2.4347,NR,3.0000
103,3,55,368.8592,-356.8578,WO,4,1,BATON,ocean,UR,1.0355,NR,3.0000
104,3,56,380.9162,-368.9149,WI,4,2,TROLLEY,bowling_alley,NR,999.0000,UR,3.1234
105,3,57,392.9737,-380.9715,WO,2,1,STOMACH,raceway,UR,2.2820,NR,3.0000
106,3,58,405.0317,-393.0294,WI,2,1,RICE,candy_store,UR,1.6585,NR,9.5398
107,3,59,417.0903,-405.0885,WI,4,1,ORNAMENT,burial_chamber,R,1.5920,NR,3.0000
108,3,60,429.1480,-417.1462,WI,4,1,TURTLE,biology_laboratory,UR,1.6135,NR,3.0000
109,3,61,441.2055,-429.2037,WO,2,1,TROPHY,manufactured_home,UR,1.5210,NR,3.0000
110,3,62,453.2632,-441.2621,WI,4,2,KALE,hospital_room,UR,1.3791,NR,3.0000
111,3,63,465.3202,-453.3189,WO,4,2,VINE,pasture,R,2.7351,NR,3.0000
112,3,64,477.3780,-465.3765,WI,4,2,CAGE,optician,UR,2.9921,NR,3.0000
113,3,65,489.4352,-477.4341,WO,4,2,BATON,ocean,UR,2.5697,NR,3.0000
114,3,66,501.4922,-489.4910,WI,2,1,TOBACCO,riding_arena,UR,1.7964,NR,3.0000
115,3,67,513.5492,-501.5484,WO,4,2,SPATULA,orchard,UR,2.9621,NR,3.0000
116,3,68,525.6058,-513.6045,WI,4,2,STOOL,cloister,UR,1.6448,NR,3.0000
117,3,69,537.6634,-525.6613,WO,4,2,MANURE,landing_deck,UR,1.3224,NR,3.0000
118,3,70,549.7213,-537.7203,WO,4,1,BROOM,fishpond,UR,2.6305,NR,3.0000
119,3,71,561.7783,-549.7770,WI,4,2,ORNAMENT,burial_chamber,R,2.2635,NR,3.0000
120,3,72,573.8359,-561.8346,WI,2,1,BUTTER,train_station,UR,1.9257,NR,3.0000
121,3,73,585.8931,-573.8924,WO,2,1,SHOWER,mausoleum,UR,2.2926,NR,3.0000
122,3,74,597.9503,-585.9492,WO,2,1,ELEPHANT,rice_paddy,UR,2.6496,NR,3.0000
123,3,75,610.0071,-598.0052,WI,4,2,TURTLE,biology_laboratory,UR,2.6820,UR,3.4446
124,3,76,622.0656,-610.0642,WO,4,2,BROOM,fishpond,NR,999.0000,UR,3.2213
125,3,77,634.1232,-622.1216,WO,2,1,EYE,promenade_deck,UR,2.6308,UR,3.0346
126,3,78,646.1807,-634.1793,WI,4,2,WINE,florist_shop,R,2.9244,R,3.1060
127,4,55,10.0038,1.9980,WI,4,1,CANARY,galley,UR,2.7966,NR,3.0000
128,4,56,22.0616,-10.0608,WI,4,1,QUARTER,ball_pit,NR,999.0000,UR,3.0217
129,4,57,34.1160,-22.1147,WO,4,1,BALLOON,ruin,UR,2.1685,NR,3.0000
130,4,58,46.1714,-34.1701,WI,2,1,NAPKIN,pantry,R,1.8187,NR,3.0000
131,4,59,58.2263,-46.2248,WI,2,1,FOX,locker_room,UR,1.6372,NR,3.0000
132,4,60,70.2816,-58.2808,WO,4,1,CHICKEN,hotel,UR,1.4067,NR,3.0000
133,4,61,82.3361,-70.3338,WI,4,1,CUCUMBER,ice_skating_rink,UR,2.6186,NR,3.0000
134,4,62,94.3922,-82.3903,WI,4,1,BOWL,car_interior,UR,2.4915,NR,3.0000
135,4,63,106.4478,-94.4462,WO,4,1,HELMET,boathouse,UR,2.7605,UR,3.1004
136,4,64,118.5028,-106.5020,WI,4,1,CARROT,control_room,UR,2.5830,NR,3.0000
137,4,65,130.5575,-118.5558,WO,2,1,CANE,picnic_area,UR,2.5606,NR,3.0000
138,4,66,142.6131,-130.6115,WI,2,1,ENVELOPE,office,UR,2.8246,R,3.0490
139,4,67,154.6685,-142.6671,WO,2,1,SLIPPER,boardwalk,UR,2.3302,UR,5.3173
140,4,68,166.7243,-154.7231,WO,2,1,SNOW,beach,UR,2.5034,NR,3.0000
141,4,69,178.7795,-166.7774,WO,4,2,CHICKEN,hotel,UR,2.7196,UR,3.0251
142,4,70,190.8355,-178.8344,WI,4,1,SOUP,lobby,UR,2.7026,UR,3.0427
143,4,71,202.8909,-190.8891,WI,4,2,BOWL,car_interior,UR,2.6175,UR,3.1660
144,4,72,214.9467,-202.9450,WI,4,1,SWORD,auto_factory,UR,2.8454,NR,3.0000
145,4,73,227.0029,-215.0021,WO,4,1,WALRUS,barn,UR,2.9516,NR,3.0000
146,4,74,239.0576,-227.0567,WO,2,1,ASPARAGUS,desert,UR,2.5976,NR,3.0000
147,4,75,251.1125,-239.1116,WI,4,2,SWORD,auto_factory,UR,2.8548,NR,3.0000
148,4,76,263.1675,-251.1655,WO,4,1,HONEY,excavation,UR,2.5258,NR,3.0000
149,4,77,275.2233,-263.2215,WI,4,2,CANARY,galley,UR,2.7543,NR,3.0000
150,4,78,287.2791,-275.2773,WO,4,1,LIGHTNING,botanical_garden,UR,2.0755,NR,3.0000
151,4,79,299.3350,-287.3329,WO,4,2,WALRUS,barn,UR,2.6573,NR,3.0000
152,4,80,311.3912,-299.3900,WI,4,2,SOUP,lobby,UR,2.0465,NR,3.0000
153,4,81,323.4469,-311.4452,WO,4,2,HELMET,boathouse,UR,2.3736,UR,3.0332
154,4,82,335.5023,-323.5008,WO,2,1,GLOBE,bayou,UR,2.8813,UR,3.1801
155,4,83,347.5593,-335.5571,WI,2,1,BROWNIE,bathroom,UR,2.7998,UR,3.0499
156,4,84,359.6157,-347.6142,WO,4,1,RIFLE,beach,NR,999.0000,UR,3.3141
157,4,85,371.6713,-359.6700,WI,2,1,TULIP,bedroom,UR,2.6382,UR,3.0653
158,4,86,383.7273,-371.7258,WI,2,1,ANT,laundromat,UR,2.8781,UR,3.0827
159,4,87,395.7829,-383.7816,WO,2,1,SOOT,nuclear_power_plant,UR,2.9357,NR,3.0000
160,4,88,407.8390,-395.8369,WI,2,1,NECKLACE,auditorium,UR,2.9254,UR,3.3445
161,4,89,419.8954,-407.8940,WO,4,2,HONEY,excavation,UR,1.0132,UR,3.2626
162,4,90,431.9507,-419.9499,WO,4,2,BALLOON,ruin,UR,2.5041,NR,3.0000
163,4,91,444.0063,-432.0044,WO,2,1,STORK,playground,UR,1.7752,NR,3.0000
164,4,92,456.0625,-444.0607,WI,4,2,CARROT,control_room,UR,2.9648,NR,3.0000
165,4,93,468.1189,-456.1178,WI,4,2,CUCUMBER,ice_skating_rink,UR,2.7816,UR,3.0091
166,4,94,480.1740,-468.1733,WO,4,2,RIFLE,beach,UR,2.4825,UR,3.0123
167,4,95,492.2289,-480.2279,WI,4,2,QUARTER,ball_pit,UR,2.9709,NR,3.0000
168,4,96,504.2846,-492.2831,WO,4,2,LIGHTNING,botanical_garden,UR,2.0495,NR,3.0000
169,5,73,10.0017,2.0005,WI,2,1,LANTERN,restaurant_kitchen,R,2.1941,NR,3.0000
170,5,74,22.0630,-10.0618,WO,4,1,UMBRELLA,pond,UR,1.2532,NR,3.0000
171,5,75,34.1215,-22.1195,WI,4,1,MUSSEL,kindergarden_classroom,UR,1.1966,NR,3.0000
172,5,76,46.1804,-34.1786,WO,4,1,SPONGE,inn,UR,2.4420,NR,3.0000
173,5,77,58.2393,-46.2373,WO,2,1,MILK,park,UR,1.1278,NR,3.0000
174,5,78,70.2985,-58.2968,WI,4,1,RASH,butchers_shop,UR,1.6850,NR,3.0000
175,5,79,82.3579,-70.3559,WO,4,1,TORNADO,gazebo,UR,1.2973,NR,3.0000
176,5,80,94.4170,-82.4160,WO,2,1,ARMOR,hangar,UR,2.7904,NR,3.0000
177,5,81,106.4752,-94.4738,WI,4,2,MUSSEL,kindergarden_classroom,UR,2.9096,UR,3.1192
178,5,82,118.5341,-106.5318,WI,4,1,SEAWEED,courtroom,UR,1.6504,NR,3.0000
179,5,83,130.5937,-118.5914,WO,2,1,PASTE,ice_shelf,UR,1.2242,NR,3.0000
180,5,84,142.6537,-130.6524,WI,4,1,CHOCOLATE,dining_room,R,1.9329,NR,3.0000
181,5,85,154.7124,-142.7110,WI,4,1,MOON,reception,UR,2.9644,UR,3.1023
182,5,86,166.7710,-154.7701,WO,2,1,CHEESE,harbor,UR,2.8883,NR,3.0000
183,5,87,178.8297,-166.8282,WO,4,1,ICICLE,islet,R,2.8853,NR,3.0000
184,5,88,190.8885,-178.8858,WI,4,2,MOON,reception,NR,2.9888,NR,3.1034
185,5,89,202.9490,-190.9478,WI,2,1,EAGLE,garage,NR,2.8809,NR,3.0687
186,5,90,215.0075,-203.0063,WO,4,1,LETTUCE,patio,NR,2.7824,NR,3.0000
187,5,91,227.0661,-215.0647,WI,4,1,JUGGLER,museum,UR,1.7305,NR,3.0000
188,5,92,239.1251,-227.1230,WO,4,2,ICICLE,islet,R,2.2169,NR,3.0000
189,5,93,251.1847,-239.1824,WO,4,2,LETTUCE,patio,R,2.8845,R,3.1039
190,5,94,263.2447,-251.2429,WI,4,1,MEDAL,banquet_hall,UR,2.7393,UR,3.1017
191,5,95,275.3039,-263.3020,WI,2,1,NIGHTGOWN,jewelry_shop,UR,2.9678,UR,3.1158
192,5,96,287.3630,-275.3606,WO,2,1,FAN,house,NR,999.0000,NR,3.2629
193,5,97,299.4233,-287.4211,WI,2,1,PENNY,ice_cream_parlor,UR,2.0585,NR,3.0000
194,5,98,311.4829,-299.4820,WO,2,1,DOVE,motel,NR,999.0000,UR,3.8275
195,5,99,323.5418,-311.5400,WO,4,2,SPONGE,inn,UR,1.5540,NR,3.0000
196,5,100,335.6011,-323.5989,WI,4,2,MEDAL,banquet_hall,UR,1.2615,NR,3.0000
197,5,101,347.6609,-335.6601,WI,4,2,JUGGLER,museum,UR,1.6917,NR,3.0000
198,5,102,359.7195,-347.7177,WO,2,1,CAMEL,athletic_field,R,2.3304,NR,3.0000
199,5,103,371.7787,-359.7777,WI,2,1,KEG,nursery,UR,2.4376,NR,3.0000
200,5,104,383.8376,-371.8365,WI,4,2,CHOCOLATE,dining_room,R,2.9159,R,3.1438
201,5,105,395.8961,-383.8947,WO,4,1,ROSARY,lock_chamber,UR,2.9592,UR,3.3551
202,5,106,407.9550,-395.9539,WO,4,1,CROWN,formal_garden,UR,2.8781,UR,3.0981
203,5,107,420.0136,-408.0123,WO,4,2,ROSARY,lock_chamber,UR,2.9461,UR,3.1485
204,5,108,432.0724,-420.0704,WI,4,2,RASH,butchers_shop,UR,2.9391,UR,3.2150
205,5,109,444.1325,-432.1302,WI,4,2,SEAWEED,courtroom,UR,2.1187,NR,3.0000
206,5,110,456.1924,-444.1916,WI,2,1,HARPOON,shopping_mall,NR,999.0000,NR,3.0000
207,5,111,468.2507,-456.2494,WO,4,2,TORNADO,gazebo,UR,2.9089,UR,3.6166
208,5,112,480.3101,-468.3087,WO,4,2,CROWN,formal_garden,UR,2.6939,NR,3.0000
209,5,113,492.3690,-480.3677,WI,2,1,PAN,sauna,UR,1.3304,NR,3.0000
210,5,114,504.4284,-492.4266,WO,4,2,UMBRELLA,pond,UR,2.6876,NR,3.0000
211,6,91,10.0018,1.9996,WO,2,1,RABBIT,canyon,R,1.8496,NR,3.0000
212,6,92,22.0628,-10.0607,WO,2,1,POTATO,bullring,UR,2.5919,NR,3.0000
213,6,93,34.1234,-22.1213,WO,4,1,WHIP,greenhouse,UR,2.6447,NR,3.0000
214,6,94,46.1843,-34.1826,WI,2,1,LAMP,aquarium,UR,2.8892,UR,3.1091
215,6,95,58.2447,-46.2430,WO,2,1,SHOVEL,arch,UR,2.2623,NR,3.0000
216,6,96,70.3041,-58.3031,WI,4,1,CANNON,hotel_room,NR,999.0000,UR,3.1085
217,6,97,82.3630,-70.3614,WI,4,2,CANNON,hotel_room,UR,1.4159,UR,3.0364
218,6,98,94.4233,-82.4216,WO,4,1,OPIUM,canal,UR,2.5252,UR,3.1850
219,6,99,106.4830,-94.4821,WI,4,1,SCOOTER,attic,UR,2.6879,UR,3.4017
220,6,100,118.5421,-106.5413,WI,4,2,SCOOTER,attic,UR,2.9635,UR,3.1274
221,6,101,130.6008,-118.5990,WO,4,1,SYRUP,oil_refinery,UR,2.7090,NR,3.0000
222,6,102,142.6608,-130.6598,WI,4,1,HAMMER,brewery,UR,2.8684,UR,3.1044
223,6,103,154.7205,-142.7187,WI,2,1,RING,stage,R,2.9727,R,3.1533
224,6,104,166.7804,-154.7783,WO,4,1,RUDDER,moat,UR,1.9931,NR,3.0000
225,6,105,178.8411,-166.8401,WI,2,1,NET,home_office,UR,1.7967,NR,3.0000
226,6,106,190.9004,-178.8978,WO,4,2,SYRUP,oil_refinery,UR,1.1972,NR,3.0000
227,6,107,202.9610,-190.9595,WO,4,2,OPIUM,canal,UR,1.9385,NR,3.0000
228,6,108,215.0212,-203.0193,WO,2,1,BENCH,mountain_snowy,UR,1.9165,NR,3.0000
229,6,109,227.0813,-215.0791,WI,4,1,OMELET,movie_theater,UR,2.5115,NR,3.0000
230,6,110,239.1425,-227.1405,WO,4,1,PUMPKIN,forest_needleleaf,UR,1.7947,NR,3.0000
231,6,111,251.2026,-239.2012,WI,4,1,CHERRY,volleyball_court,UR,2.9412,NR,3.0000
232,6,112,263.2623,-251.2608,WO,2,1,RACQUET,power_plant,UR,1.3060,NR,3.0000
233,6,113,275.3223,-263.3205,WI,4,1,SAIL,kitchenette,UR,2.2139,NR,3.0000
234,6,114,287.3825,-275.3805,WO,4,1,OATMEAL,palace,UR,2.7497,UR,3.2658
235,6,115,299.4434,-287.4416,WI,4,2,OMELET,movie_theater,NR,999.0000,UR,3.1093
236,6,116,311.5035,-299.5021,WI,2,1,WAND,dorm_room,UR,2.8545,NR,3.0000
237,6,117,323.5632,-311.5621,WI,2,1,CRAB,closet,UR,2.8900,UR,3.0698
238,6,118,335.6231,-323.6212,WO,2,1,VELVET,corn_field,UR,2.6422,NR,3.0000
239,6,119,347.6831,-335.6810,WO,4,2,RUDDER,moat,UR,2.4808,NR,3.0000
240,6,120,359.7441,-347.7426,WI,4,2,HAMMER,brewery,UR,1.5580,NR,3.0000
241,6,121,371.8038,-359.8024,WO,4,2,OATMEAL,palace,UR,1.5004,NR,3.0000
242,6,122,383.8635,-371.8623,WI,4,1,TRIBE,pulpit,UR,1.7600,NR,3.0000
243,6,123,395.9235,-383.9225,WO,4,2,WHIP,greenhouse,UR,1.8593,NR,3.0000
244,6,124,407.9828,-395.9815,WO,4,1,SOAP,rock_arch,UR,1.8932,NR,3.0000
245,6,125,420.0429,-408.0409,WI,2,1,MAGICIAN,assembly_line,UR,2.7281,NR,3.0000
246,6,126,432.1031,-420.1013,WO,2,1,BRAIN,putting_green,UR,2.2497,NR,3.0000
247,6,127,444.1632,-432.1612,WI,4,2,SAIL,kitchenette,UR,1.9561,NR,3.0000
248,6,128,456.2243,-444.2222,WO,4,2,PUMPKIN,forest_needleleaf,UR,2.8696,NR,3.0000
249,6,129,468.2845,-456.2824,WO,4,2,SOAP,rock_arch,UR,1.9562,NR,3.0000
250,6,130,480.3457,-468.3436,WI,4,2,TRIBE,pulpit,NR,999.0000,NR,3.0000
251,6,131,492.4064,-480.4056,WI,2,1,LAMB,synagogue,UR,1.8557,NR,3.0000
252,6,132,504.4658,-492.4639,WI,4,2,CHERRY,volleyball_court,UR,2.7838,NR,3.0000
253,7,109,10.0024,1.9996,WO,4,3,POWDER,lido_deck,R,2.2267,NR,3.0000
254,7,110,22.0664,-10.0656,WO,4,3,WRENCH,campsite,UR,1.7050,NR,3.0000
255,7,111,34.1273,-22.1260,WI,4,3,STAPLER,kennel,UR,1.5259,NR,3.0000
256,7,112,46.1883,-34.1863,WI,2,2,FENCE,cathedral,UR,2.1064,NR,3.0000
257,7,113,58.2501,-46.2481,WI,4,3,KNIFE,limousine_interior,R,2.0486,NR,3.0000
258,7,114,70.3122,-58.3111,WO,4,3,SOCK,cabin,UR,2.7742,R,3.0331
259,7,115,82.3730,-70.3723,WO,4,3,SCREWDRIVER,marsh,NR,999.0000,NR,3.0000
260,7,116,94.4340,-82.4327,WI,4,3,BAYONET,childs_room,NR,999.0000,NR,3.0000
261,7,117,106.4950,-94.4941,WI,4,3,DAISY,bookstore,R,2.1435,NR,3.0000
262,7,118,118.5561,-106.5538,WO,4,3,SHRIMP,baseball_field,UR,2.3743,NR,3.0000
263,7,119,130.6183,-118.6166,WI,4,3,MEDICINE,chicken_coop,R,1.7706,NR,3.0000
264,7,120,142.6798,-130.6781,WO,4,3,FIRE,creek,UR,2.2653,NR,3.0000
265,7,121,154.7412,-142.7404,WI,4,4,BAYONET,childs_room,UR,2.4655,NR,3.0000
266,7,122,166.8017,-154.7995,WI,4,3,BEAVER,natural_history_museum,R,1.5756,NR,3.0000
267,7,123,178.8637,-166.8614,WO,4,4,FIRE,creek,UR,1.5281,NR,3.0000
268,7,124,190.9263,-178.9255,WO,4,4,SCREWDRIVER,marsh,UR,1.5459,UR,3.7660
269,7,125,202.9869,-190.9852,WO,2,2,SALAD,bamboo_forest,UR,2.5785,NR,3.0000
270,7,126,215.0490,-203.0472,WI,2,2,SCORPION,catacomb,UR,2.4310,NR,3.0000
271,7,127,227.1109,-215.1095,WI,2,2,POSTER,casino,R,2.5312,NR,3.0000
272,7,128,239.1728,-227.1711,WI,4,3,RAKE,bistro,UR,2.8116,NR,3.0000
273,7,129,251.2344,-239.2334,WO,4,4,SOCK,cabin,UR,2.8332,NR,3.0000
274,7,130,263.2954,-251.2943,WO,4,4,SHRIMP,baseball_field,UR,1.7958,NR,3.0000
275,7,131,275.3569,-263.3561,WI,2,2,ARROW,baggage_claim,R,2.9527,NR,3.0000
276,7,132,287.4179,-275.4157,WO,4,4,WRENCH,campsite,UR,1.4772,NR,3.0000
277,7,133,299.4808,-287.4788,WO,2,2,ASPIRIN,aqueduct,UR,1.7994,NR,3.0000
278,7,134,311.5429,-299.5408,WO,4,3,TABLE,crosswalk,UR,2.4587,NR,3.0000
279,7,135,323.6049,-311.6030,WI,2,2,DESK,apse,R,2.2921,NR,3.0000
280,7,136,335.6674,-323.6666,WO,4,4,TABLE,crosswalk,UR,2.9865,UR,3.1408
281,7,137,347.7285,-335.7277,WI,2,2,OTTER,drugstore,NR,999.0000,UR,3.3264
282,7,138,359.7898,-347.7885,WI,4,4,KNIFE,limousine_interior,R,1.9157,NR,3.0000
283,7,139,371.8510,-359.8500,WI,4,4,RAKE,bistro,UR,2.0587,NR,3.0000
284,7,140,383.9123,-371.9115,WO,4,4,POWDER,lido_deck,R,2.8908,NR,3.0000
285,7,141,395.9736,-383.9717,WI,4,4,MEDICINE,chicken_coop,NR,999.0000,R,3.3846
286,7,142,408.0356,-396.0341,WI,4,4,STAPLER,kennel,UR,1.7852,NR,3.0000
287,7,143,420.0978,-408.0968,WO,2,2,ROPE,corral,R,1.9649,NR,3.0000
288,7,144,432.1590,-420.1567,WI,4,4,BEAVER,natural_history_museum,R,1.4036,NR,3.0000
289,7,145,444.2214,-432.2192,WO,2,2,TYPEWRITER,forest_path,UR,1.9071,NR,3.0000
290,7,146,456.2842,-444.2819,WI,4,4,DAISY,bookstore,R,1.3108,NR,3.0000
291,7,147,468.3465,-456.3452,WO,2,2,SARDINE,basilica,UR,1.7386,NR,3.0000
292,7,148,480.4082,-468.4065,WO,2,2,SHARK,office_building,UR,1.5997,NR,3.0000
293,7,149,492.4702,-480.4684,WI,2,2,WITCH,throne_room,R,2.3170,NR,3.0000
294,7,150,504.5321,-492.5301,WO,2,2,CORAL,balcony,UR,2.3169,NR,3.0000
295,8,127,10.0032,1.9984,WI,4,3,WALLET,library,R,2.3514,NR,3.0000
296,8,128,22.0704,-10.0696,WI,4,3,DAMSEL,cubicle,UR,1.7877,NR,3.0000
297,8,129,34.1352,-22.1337,WI,2,2,TELEGRAPH,archive,UR,2.0052,NR,3.0000
298,8,130,46.2004,-34.1980,WO,2,2,BANDIT,heliport,R,2.6557,NR,3.0000
299,8,131,58.2668,-46.2660,WI,4,3,GEESE,athletic_field,NR,999.0000,UR,3.7510
300,8,132,70.3314,-58.3301,WI,2,2,ORCHID,cockpit,R,1.4971,NR,3.0000
301,8,133,82.3962,-70.3952,WI,4,3,CRADLE,jacuzzi,UR,1.4260,NR,3.0000
302,8,134,94.4614,-82.4595,WO,4,3,PYTHON,pagoda,R,1.7077,NR,3.0000
303,8,135,106.5268,-94.5246,WI,2,2,APPLE,airplane_cabin,R,1.3521,NR,3.0000
304,8,136,118.5931,-106.5912,WO,2,2,FLASK,general_store,R,1.4023,NR,3.0000
305,8,137,130.6587,-118.6570,WI,2,2,THONG,jail_cell,UR,2.1268,NR,3.0000
306,8,138,142.7239,-130.7219,WI,4,3,DOLL,cafeteria,NR,999.0000,NR,3.0000
307,8,139,154.7899,-142.7891,WO,4,3,SNAIL,ice_floe,UR,2.1724,NR,3.0000
308,8,140,166.8542,-154.8533,WO,4,3,BASKET,cottage_garden,R,1.4804,NR,3.0000
309,8,141,178.9193,-166.9171,WI,4,4,CRADLE,jacuzzi,UR,1.1589,NR,3.0000
310,8,142,190.9849,-178.9828,WO,4,3,ACCORDIAN,mountain,R,1.7229,NR,3.0000
311,8,143,203.0507,-191.0498,WO,4,3,WORM,fire_station,UR,1.1586,NR,3.0000
312,8,144,215.1161,-203.1141,WI,2,2,QUILL,computer_room,UR,1.4065,NR,3.0000
313,8,145,227.1818,-215.1806,WO,4,3,GLOVE,crevasse,UR,1.8581,NR,3.0000
314,8,146,239.2473,-227.2461,WO,4,3,PUDDLE,hill,UR,1.2074,NR,3.0000
315,8,147,251.3121,-239.3102,WI,2,2,SUBMARINE,music_studio,UR,1.7643,NR,3.0000
316,8,148,263.3777,-251.3761,WO,2,2,TWEEZERS,cliff,UR,2.7538,NR,3.0000
317,8,149,275.4434,-263.4420,WO,2,2,SCOTCH,hot_tub,R,1.3248,NR,3.0000
318,8,150,287.5083,-275.5071,WO,4,4,WORM,fire_station,UR,2.1177,NR,3.0000
319,8,151,299.5737,-287.5725,WI,4,4,DOLL,cafeteria,UR,1.5779,NR,3.0000
320,8,152,311.6387,-299.6364,WO,4,4,PUDDLE,hill,UR,1.7757,NR,3.0000
321,8,153,323.7048,-311.7030,WI,4,4,DAMSEL,cubicle,UR,0.8455,NR,3.0000
322,8,154,335.7708,-323.7700,WI,4,3,DRUG,art_studio,R,2.9377,R,3.1175
323,8,155,347.8355,-335.8345,WO,4,4,ACCORDIAN,mountain,R,2.9593,R,3.1072
324,8,156,359.9007,-347.8998,WI,4,4,DRUG,art_studio,R,2.1560,NR,3.0000
325,8,157,371.9654,-359.9634,WI,4,4,GEESE,athletic_field,NR,999.0000,NR,3.0000
326,8,158,384.0313,-372.0302,WO,4,4,GLOVE,crevasse,UR,2.3679,NR,3.0000
327,8,159,396.0970,-384.0947,WO,2,2,ZIPPER,construction_site,UR,1.8770,NR,3.0000
328,8,160,408.1634,-396.1624,WO,4,4,PYTHON,pagoda,R,1.5946,NR,3.0000
329,8,161,420.2287,-408.2266,WI,2,2,ALLIGATOR,elevator,UR,2.8767,NR,3.0000
330,8,162,432.2949,-420.2930,WI,4,4,WALLET,library,R,1.6113,NR,3.0000
331,8,163,444.3607,-432.3597,WO,4,4,SNAIL,ice_floe,UR,1.5824,NR,3.0000
332,8,164,456.4266,-444.4257,WO,2,2,PIGEON,field_cultivated,UR,1.5783,NR,3.0000
333,8,165,468.4915,-456.4901,WI,4,3,DOUGHNUT,beauty_salon,UR,1.3659,NR,3.0000
334,8,166,480.5573,-468.5563,WO,2,2,MOUSE,iceberg,UR,2.1030,NR,3.0000
335,8,167,492.6221,-480.6214,WO,4,4,BASKET,cottage_garden,R,1.8484,NR,3.0000
336,8,168,504.6868,-492.6856,WI,4,4,DOUGHNUT,beauty_salon,UR,2.8062,NR,3.0000
337,9,145,10.0022,1.9989,WO,4,3,DETECTIVE,fountain,UR,1.9412,NR,3.0000
338,9,146,22.0715,-10.0697,WO,2,2,NEEDLE,chalet,UR,1.2805,NR,3.0000
339,9,147,34.1397,-22.1375,WI,4,3,WINE,florist_shop,R,1.5968,NR,3.0000
340,9,148,46.2079,-34.2061,WO,4,3,BROOM,fishpond,UR,1.4652,NR,3.0000
341,9,149,58.2755,-46.2733,WI,2,2,MONKEY,parking_garage,NR,999.0000,UR,3.0209
342,9,150,70.3441,-58.3432,WO,4,3,NOODLE,driving_range,UR,2.1743,NR,3.0000
343,9,151,82.4110,-70.4102,WI,2,2,RICE,candy_store,UR,1.9768,NR,3.0000
344,9,152,94.4781,-82.4770,WI,4,3,STOOL,cloister,UR,0.9322,NR,3.0000
345,9,153,106.5451,-94.5439,WO,4,3,VINE,pasture,NR,999.0000,R,3.1749
346,9,154,118.6124,-106.6115,WO,4,3,MANURE,landing_deck,NR,999.0000,UR,3.1181
347,9,155,130.6797,-118.6789,WO,2,2,SHOWER,mausoleum,UR,2.0908,NR,3.0000
348,9,156,142.7466,-130.7452,WI,4,4,STOOL,cloister,UR,2.1009,NR,3.0000
349,9,157,154.8145,-142.8122,WI,2,2,EASEL,stable,R,2.2488,NR,3.0000
350,9,158,166.8829,-154.8808,WO,4,3,BATON,ocean,UR,1.3827,NR,3.0000
351,9,159,178.9510,-166.9486,WO,4,4,MANURE,landing_deck,UR,0.9932,NR,3.0000
352,9,160,191.0197,-179.0176,WI,4,3,CAGE,optician,NR,999.0000,NR,3.0000
353,9,161,203.0879,-191.0857,WO,4,4,NOODLE,driving_range,UR,1.0921,NR,3.0000
354,9,162,215.1567,-203.1557,WI,4,4,WINE,florist_shop,R,1.4694,NR,3.0000
355,9,163,227.2238,-215.2224,WI,4,4,CAGE,optician,UR,1.4568,NR,3.0000
356,9,164,239.2914,-227.2904,WO,2,2,EYE,promenade_deck,UR,1.6224,NR,3.0000
357,9,165,251.3584,-239.3571,WO,2,2,ELEPHANT,rice_paddy,UR,2.3054,NR,3.0000
358,9,166,263.4258,-251.4241,WO,2,2,TROPHY,manufactured_home,UR,1.7401,NR,3.0000
359,9,167,275.4939,-263.4919,WI,2,2,TOBACCO,riding_arena,NR,999.0000,UR,3.3026
360,9,168,287.5619,-275.5608,WO,4,4,BATON,ocean,UR,2.0184,NR,3.0000
361,9,169,299.6290,-287.6278,WI,2,2,BUTTER,train_station,UR,2.1599,NR,3.0000
362,9,170,311.6969,-299.6961,WI,2,2,EMPEROR,playroom,UR,2.2111,NR,3.0000
363,9,171,323.7638,-311.7629,WI,4,3,ORNAMENT,burial_chamber,R,1.4835,NR,3.0000
364,9,172,335.8315,-323.8300,WO,4,4,DETECTIVE,fountain,UR,1.6522,NR,3.0000
365,9,173,347.8991,-335.8977,WI,4,3,TROLLEY,bowling_alley,NR,999.0000,NR,3.0000
366,9,174,359.9666,-347.9648,WI,4,3,KALE,hospital_room,UR,2.3242,NR,3.0000
367,9,175,372.0353,-360.0339,WO,4,3,SPATULA,orchard,UR,1.5328,NR,3.0000
368,9,176,384.1027,-372.1020,WO,4,4,SPATULA,orchard,UR,1.3390,NR,3.0000
369,9,177,396.1701,-384.1678,WI,2,2,WOLF,supermarket,UR,2.3943,NR,3.0000
370,9,178,408.2385,-396.2372,WI,4,4,ORNAMENT,burial_chamber,R,2.2979,NR,3.0000
371,9,179,420.3058,-408.3049,WO,4,4,VINE,pasture,R,2.0427,NR,3.0000
372,9,180,432.3732,-420.3710,WI,4,4,KALE,hospital_room,NR,999.0000,NR,3.0000
373,9,181,444.4417,-432.4410,WO,2,2,KILT,butte,UR,1.5026,NR,3.0000
374,9,182,456.5092,-444.5084,WI,4,3,TURTLE,biology_laboratory,UR,2.7813,NR,3.0000
375,9,183,468.5763,-456.5742,WO,4,4,BROOM,fishpond,UR,1.4429,NR,3.0000
376,9,184,480.6448,-468.6429,WO,2,2,STOMACH,raceway,UR,1.9106,NR,3.0000
377,9,185,492.7134,-480.7117,WI,4,4,TURTLE,biology_laboratory,UR,0.9787,NR,3.0000
378,9,186,504.7813,-492.7798,WI,4,4,TROLLEY,bowling_alley,UR,1.5182,UR,9.7107
379,10,163,10.0029,1.9990,WO,4,3,HELMET,boathouse,UR,1.3046,NR,3.0000
380,10,164,22.0729,-10.0709,WO,4,3,WALRUS,barn,UR,1.9276,NR,3.0000
381,10,165,34.1403,-22.1383,WO,4,4,WALRUS,barn,UR,1.7724,NR,3.0000
382,10,166,46.2088,-34.2077,WI,4,3,SWORD,auto_factory,UR,2.8779,UR,3.2354
383,10,167,58.2755,-46.2748,WI,4,3,BOWL,car_interior,UR,1.1350,NR,3.0000
384,10,168,70.3417,-58.3398,WI,4,3,CANARY,galley,UR,1.7813,NR,3.0000
385,10,169,82.4101,-70.4089,WO,4,4,HELMET,boathouse,UR,1.3075,NR,3.0000
386,10,170,94.4769,-82.4758,WO,2,2,SNOW,beach,UR,2.5548,NR,3.0000
387,10,171,106.5440,-94.5424,WI,4,3,CARROT,control_room,UR,1.4337,NR,3.0000
388,10,172,118.6115,-106.6103,WO,4,3,HONEY,excavation,UR,1.8170,NR,3.0000
389,10,173,130.6783,-118.6761,WI,2,2,ENVELOPE,office,UR,1.5717,NR,3.0000
390,10,174,142.7467,-130.7459,WI,4,4,BOWL,car_interior,UR,1.1382,NR,3.0000
391,10,175,154.8132,-142.8121,WI,4,4,CANARY,galley,UR,1.2799,NR,3.0000
392,10,176,166.8804,-154.8778,WO,4,3,LIGHTNING,botanical_garden,UR,1.1964,NR,3.0000
393,10,177,178.9484,-166.9470,WO,2,2,SOOT,nuclear_power_plant,UR,2.1162,NR,3.0000
394,10,178,191.0158,-179.0151,WO,2,2,GLOBE,bayou,UR,1.7730,NR,3.0000
395,10,179,203.0829,-191.0819,WI,4,4,CARROT,control_room,UR,2.0253,NR,3.0000
396,10,180,215.1496,-203.1478,WO,4,3,RIFLE,beach,UR,2.7961,NR,3.0000
397,10,181,227.2176,-215.2165,WI,2,2,NECKLACE,auditorium,UR,2.2167,NR,3.0000
398,10,182,239.2845,-227.2824,WI,2,2,BROWNIE,bathroom,NR,999.0000,UR,3.0698
399,10,183,251.3524,-239.3511,WI,4,3,QUARTER,ball_pit,UR,0.9927,NR,3.0000
400,10,184,263.4199,-251.4186,WO,2,2,STORK,playground,UR,1.0669,NR,3.0000
401,10,185,275.4873,-263.4854,WO,4,4,LIGHTNING,botanical_garden,UR,1.5954,NR,3.0000
402,10,186,287.5559,-275.5539,WO,4,3,CHICKEN,hotel,UR,2.6417,NR,3.0000
403,10,187,299.6236,-287.6221,WI,4,4,SWORD,auto_factory,UR,1.2967,NR,3.0000
404,10,188,311.6909,-299.6894,WO,4,4,CHICKEN,hotel,UR,1.2854,NR,3.0000
405,10,189,323.7585,-311.7578,WO,2,2,SLIPPER,boardwalk,UR,1.5556,NR,3.0000
406,10,190,335.8253,-323.8239,WI,4,3,SOUP,lobby,UR,1.2544,NR,3.0000
407,10,191,347.8934,-335.8920,WI,2,2,NAPKIN,pantry,NR,999.0000,NR,3.0000
408,10,192,359.9605,-347.9572,WO,2,2,ASPARAGUS,desert,UR,1.0545,NR,3.0000
409,10,193,372.0299,-360.0289,WO,2,2,CANE,picnic_area,UR,1.4318,NR,3.0000
410,10,194,384.0966,-372.0953,WI,4,3,CUCUMBER,ice_skating_rink,UR,1.1655,NR,3.0000
411,10,195,396.1641,-384.1619,WO,4,3,BALLOON,ruin,UR,2.6687,NR,3.0000
412,10,196,408.2330,-396.2313,WI,4,4,SOUP,lobby,NR,999.0000,UR,3.0270
413,10,197,420.3005,-408.2995,WI,2,2,FOX,locker_room,UR,1.8424,NR,3.0000
414,10,198,432.3675,-420.3662,WI,4,4,CUCUMBER,ice_skating_rink,UR,2.3670,NR,3.0000
415,10,199,444.4351,-432.4328,WO,4,4,HONEY,excavation,UR,2.3986,NR,3.0000
416,10,200,456.5033,-444.5016,WO,4,4,BALLOON,ruin,UR,1.6814,NR,3.0000
417,10,201,468.5717,-456.5704,WI,2,2,ANT,laundromat,UR,2.6792,NR,3.0000
418,10,202,480.6393,-468.6381,WI,2,2,TULIP,bedroom,UR,1.9459,NR,3.0000
419,10,203,492.7070,-480.7051,WO,4,4,RIFLE,beach,UR,2.4836,NR,3.0000
420,10,204,504.7753,-492.7746,WI,4,4,QUARTER,ball_pit,UR,1.6202,NR,3.0000
421,11,181,10.0029,1.9987,WO,2,2,ARMOR,hangar,R,1.8079,NR,3.0000
422,11,182,22.0723,-10.0701,WI,2,2,HARPOON,shopping_mall,NR,999.0000,R,3.0705
423,11,183,34.1393,-22.1373,WI,2,2,PAN,sauna,UR,1.3562,NR,3.0000
424,11,184,46.2060,-34.2032,WO,4,3,ROSARY,lock_chamber,NR,2.5580,NR,3.0000
425,11,185,58.2741,-46.2720,WO,2,2,FAN,house,UR,2.6389,NR,3.0000
426,11,186,70.3409,-58.3402,WI,2,2,PENNY,ice_cream_parlor,UR,0.9927,NR,3.0000
427,11,187,82.4071,-70.4050,WO,4,3,LETTUCE,patio,R,1.5543,NR,3.0000
428,11,188,94.4741,-82.4721,WI,4,3,JUGGLER,museum,UR,1.8167,NR,3.0000
429,11,189,106.5408,-94.5399,WI,4,3,MEDAL,banquet_hall,UR,2.3319,NR,3.0000
430,11,190,118.6074,-106.6064,WO,4,3,ICICLE,islet,UR,2.8803,R,3.1173
431,11,191,130.6733,-118.6709,WI,2,2,EAGLE,garage,UR,1.9352,NR,3.0000
432,11,192,142.7411,-130.7403,WO,4,4,ROSARY,lock_chamber,UR,2.7805,NR,3.0000
433,11,193,154.8070,-142.8050,WI,2,2,NIGHTGOWN,jewelry_shop,NR,999.0000,UR,3.0556
434,11,194,166.8739,-154.8723,WI,4,3,SEAWEED,courtroom,NR,999.0000,UR,3.2038
435,11,195,178.9411,-166.9386,WI,4,4,SEAWEED,courtroom,UR,2.9462,UR,3.1409
436,11,196,191.0086,-179.0069,WO,4,3,TORNADO,gazebo,NR,999.0000,NR,3.0000
437,11,197,203.0757,-191.0744,WO,4,4,LETTUCE,patio,R,2.1034,NR,3.0000
438,11,198,215.1422,-203.1404,WO,4,3,SPONGE,inn,UR,2.8676,UR,3.1178
439,11,199,227.2090,-215.2074,WI,4,4,JUGGLER,museum,UR,1.2219,NR,3.0000
440,11,200,239.2763,-227.2750,WO,2,2,CHEESE,harbor,UR,2.0716,NR,3.0000
441,11,201,251.3427,-239.3408,WI,4,3,RASH,butchers_shop,UR,1.3659,NR,3.0000
442,11,202,263.4101,-251.4091,WI,4,3,MUSSEL,kindergarden_classroom,UR,1.7442,NR,3.0000
443,11,203,275.4760,-263.4742,WO,4,3,CROWN,formal_garden,NR,999.0000,NR,5.2594
444,11,204,287.5427,-275.5410,WI,4,3,MOON,reception,UR,1.6157,NR,3.0000
445,11,205,299.6101,-287.6094,WO,4,4,CROWN,formal_garden,NR,999.0000,UR,11.5437
446,11,206,311.6759,-299.6750,WI,2,2,KEG,nursery,UR,2.8092,UR,3.0685
447,11,207,323.7427,-311.7420,WI,4,3,CHOCOLATE,dining_room,R,2.8495,R,3.0684
448,11,208,335.8089,-323.8082,WO,2,2,CAMEL,athletic_field,R,1.9026,NR,3.0000
449,11,209,347.8750,-335.8735,WI,4,4,MEDAL,banquet_hall,UR,2.2245,UR,3.2025
450,11,210,359.9422,-347.9412,WO,2,2,MILK,park,UR,2.1262,NR,3.0000
451,11,211,372.0086,-360.0069,WO,4,4,ICICLE,islet,R,2.2981,NR,3.0000
452,11,212,384.0762,-372.0749,WO,4,4,TORNADO,gazebo,UR,2.2883,NR,3.0000
453,11,213,396.1428,-384.1408,WI,4,4,MUSSEL,kindergarden_classroom,UR,2.9567,UR,3.1439
454,11,214,408.2101,-396.2093,WI,4,4,MOON,reception,UR,1.0416,NR,3.0000
455,11,215,420.2763,-408.2749,WI,4,4,RASH,butchers_shop,UR,1.7436,NR,3.0000
456,11,216,432.3432,-420.3418,WO,4,3,UMBRELLA,pond,UR,1.4574,NR,3.0000
457,11,217,444.4104,-432.4086,WO,2,2,DOVE,motel,UR,1.2955,NR,3.0000
458,11,218,456.4777,-444.4768,WO,4,4,UMBRELLA,pond,UR,0.8757,NR,3.0000
459,11,219,468.5440,-456.5421,WI,4,4,CHOCOLATE,dining_room,R,2.9186,R,3.2883
460,11,220,480.6120,-468.6106,WO,2,2,PASTE,ice_shelf,UR,1.7650,NR,3.0000
461,11,221,492.6789,-480.6780,WO,4,4,SPONGE,inn,UR,0.9233,NR,3.0000
462,11,222,504.7457,-492.7447,WI,2,2,LANTERN,restaurant_kitchen,R,1.1444,NR,3.0000
463,12,199,10.0036,1.9975,WI,4,3,OMELET,movie_theater,UR,1.0849,NR,3.0000
464,12,200,22.0748,-10.0741,WI,2,2,MAGICIAN,assembly_line,UR,1.4373,NR,3.0000
465,12,201,34.1435,-22.1419,WO,4,3,RUDDER,moat,UR,2.5808,NR,3.0000
466,12,202,46.2126,-34.2112,WI,4,3,CHERRY,volleyball_court,UR,2.4025,NR,3.0000
467,12,203,58.2815,-46.2805,WO,2,2,RABBIT,canyon,UR,2.7051,R,3.0374
468,12,204,70.3511,-58.3496,WI,4,3,CANNON,hotel_room,UR,1.7865,NR,3.0000
469,12,205,82.4209,-70.4196,WO,4,3,OATMEAL,palace,UR,1.3067,NR,3.0000
470,12,206,94.4900,-82.4885,WI,4,3,SCOOTER,attic,UR,2.9461,NR,3.0000
471,12,207,106.5589,-94.5574,WI,2,2,CRAB,closet,UR,1.9201,NR,3.0000
472,12,208,118.6282,-106.6263,WO,2,2,BENCH,mountain_snowy,UR,1.4250,NR,3.0000
473,12,209,130.6974,-118.6952,WO,4,3,WHIP,greenhouse,UR,1.7324,NR,3.0000
474,12,210,142.7671,-130.7663,WO,4,4,OATMEAL,palace,UR,1.8230,NR,3.0000
475,12,211,154.8357,-142.8343,WI,2,2,WAND,dorm_room,UR,1.7803,NR,3.0000
476,12,212,166.9046,-154.9025,WI,4,3,TRIBE,pulpit,UR,1.6356,NR,3.0000
477,12,213,178.9742,-166.9720,WO,2,2,SHOVEL,arch,UR,2.4262,NR,3.0000
478,12,214,191.0444,-179.0437,WI,4,3,HAMMER,brewery,UR,1.4545,NR,3.0000
479,12,215,203.1127,-191.1105,WO,4,3,SYRUP,oil_refinery,UR,1.6756,NR,3.0000
480,12,216,215.1829,-203.1809,WO,4,3,OPIUM,canal,UR,2.2159,NR,3.0000
481,12,217,227.2526,-215.2512,WI,4,4,OMELET,movie_theater,UR,1.0272,NR,3.0000
482,12,218,239.3222,-227.3206,WI,2,2,NET,home_office,NR,999.0000,UR,3.2313
483,12,219,251.3914,-239.3899,WO,2,2,RACQUET,power_plant,UR,1.4660,NR,3.0000
484,12,220,263.4606,-251.4582,WI,4,3,SAIL,kitchenette,UR,0.6961,NR,3.0000
485,12,221,275.5311,-263.5300,WO,4,3,SOAP,rock_arch,UR,2.8750,NR,3.0000
486,12,222,287.5997,-275.5984,WO,4,4,SYRUP,oil_refinery,UR,2.5762,NR,3.0000
487,12,223,299.6707,-287.6687,WI,4,4,SAIL,kitchenette,UR,2.9463,UR,3.1737
488,12,224,311.7404,-299.7375,WI,4,4,TRIBE,pulpit,UR,2.5097,NR,3.0000
489,12,225,323.8111,-311.8102,WO,2,2,BRAIN,putting_green,UR,1.4098,NR,3.0000
490,12,226,335.8799,-323.8790,WI,4,4,CANNON,hotel_room,UR,1.4696,NR,3.0000
491,12,227,347.9487,-335.9470,WO,4,3,PUMPKIN,forest_needleleaf,UR,0.8360,NR,3.0000
492,12,228,360.0185,-348.0170,WI,4,4,HAMMER,brewery,UR,1.5352,NR,3.0000
493,12,229,372.0876,-360.0853,WI,2,2,LAMP,aquarium,UR,1.5665,NR,3.0000
494,12,230,384.1578,-372.1567,WO,4,4,PUMPKIN,forest_needleleaf,UR,1.1351,NR,3.0000
495,12,231,396.2274,-384.2265,WI,4,4,SCOOTER,attic,UR,1.1435,NR,3.0000
496,12,232,408.2960,-396.2950,WI,2,2,RING,stage,UR,1.8923,NR,3.0000
497,12,233,420.3651,-408.3638,WO,4,4,SOAP,rock_arch,UR,2.1364,NR,3.0000
498,12,234,432.4342,-420.4328,WI,2,2,LAMB,synagogue,UR,1.1500,NR,3.0000
499,12,235,444.5033,-432.5011,WO,4,4,WHIP,greenhouse,UR,1.5794,NR,3.0000
500,12,236,456.5739,-444.5730,WO,2,2,POTATO,bullring,UR,2.7805,NR,3.0000
501,12,237,468.6429,-456.6416,WI,4,4,CHERRY,volleyball_court,UR,1.4088,NR,3.0000
502,12,238,480.7128,-468.7121,WO,2,2,VELVET,corn_field,UR,1.1218,NR,3.0000
503,12,239,492.7814,-480.7798,WO,4,4,OPIUM,canal,UR,1.2089,UR,3.0749
504,12,240,504.8508,-492.8488,WO,4,4,RUDDER,moat,UR,1.1725,NR,3.0000
