index,run,trial,onset,duration,cond,repType,repCount,word,pic,resp,respRT,ISIresp,ISIrespRT
1,1,1,10.0044,1.9990,WO,4,1,BANDAGE,hayfield,UR,1.8895,NR,3.0000
2,1,2,22.0694,-10.0672,WI,4,1,SHOVEL,escalator,UR,1.6191,NR,3.0000
3,1,3,34.1291,-22.1259,WO,2,1,TROPHY,general_store,UR,2.3865,UR,9.5503
4,1,4,46.1909,-34.1885,WO,4,1,DAISY,gazebo,R,2.5032,NR,3.0000
5,1,5,58.2526,-46.2518,WO,4,1,PIGEON,barn,R,2.5431,NR,3.0000
6,1,6,70.3121,-58.3113,WI,4,1,SCISSORS,train_station,UR,2.5771,NR,3.0000
7,1,7,82.3724,-70.3707,WO,4,1,KNIFE,heliport,R,2.8732,NR,3.0000
8,1,8,94.4328,-82.4309,WI,2,1,DUST,subway_interior,R,2.1072,NR,3.0000
9,1,9,106.4936,-94.4924,WO,2,1,JACKET,lift_bridge,UR,1.8294,NR,3.0000
10,1,10,118.5541,-106.5529,WO,4,1,ARMOR,crevasse,UR,2.6476,NR,3.0000
11,1,11,130.6141,-118.6120,WO,2,1,DAMSEL,outhouse,UR,2.1026,NR,3.0000
12,1,12,142.6754,-130.6731,WI,4,1,SLIPPER,bar,UR,2.0920,NR,3.0000
13,1,13,154.7365,-142.7348,WI,4,1,CLARINET,operating_room,UR,2.3001,NR,3.0000
14,1,14,166.7972,-154.7955,WI,2,1,RICE,dentists_office,R,2.4498,NR,3.0000
15,1,15,178.8581,-166.8557,WO,2,1,VINE,orchard,R,1.5976,NR,3.0000
16,1,16,190.9195,-178.9176,WI,4,1,BEAVER,badminton_court,UR,2.1804,NR,3.0000
17,1,17,202.9812,-190.9797,WI,2,1,SCOTCH,auditorium,UR,1.8485,NR,3.0000
18,1,18,215.0415,-203.0393,WI,4,2,SHOVEL,escalator,UR,2.3827,NR,3.0000
19,1,19,227.1027,-215.1009,WO,4,2,ARMOR,crevasse,UR,1.7481,NR,3.0000
20,1,20,239.1647,-227.1636,WI,4,1,RASH,auto_factory,UR,2.1048,NR,3.0000
21,1,21,251.2250,-239.2241,WI,2,1,TROLLEY,closet,UR,2.0716,NR,3.0000
22,1,22,263.2856,-251.2848,WI,4,2,SLIPPER,bar,UR,1.0907,NR,3.0000
23,1,23,275.3454,-263.3446,WO,4,2,DAISY,gazebo,R,1.8404,NR,3.0000
24,1,24,287.4052,-275.4034,WO,4,1,CAGE,promenade_deck,UR,1.9264,NR,3.0000
25,1,25,299.4664,-287.4645,WI,4,2,CLARINET,operating_room,UR,1.7795,NR,3.0000
26,1,26,311.5275,-299.5263,WO,4,1,WALRUS,crosswalk,UR,1.8420,NR,3.0000
27,1,27,323.5883,-311.5870,WI,4,2,BEAVER,badminton_court,UR,1.3665,NR,3.0000
28,1,28,335.6486,-323.6477,WO,4,2,PIGEON,barn,R,1.8920,NR,3.0000
29,1,29,347.7085,-335.7063,WI,2,1,HAM,diner,R,1.7928,NR,3.0000
30,1,30,359.7704,-347.7674,WI,4,2,RASH,auto_factory,UR,1.1752,NR,3.0000
31,1,31,371.8327,-359.8313,WO,2,1,HAMMER,putting_green,UR,2.1405,NR,3.0000
32,1,32,383.8938,-371.8924,WI,4,1,LIGHTNING,candy_store,UR,2.2255,NR,3.0000
33,1,33,395.9541,-383.9522,WO,2,1,DOVE,oil_refinery,UR,2.6141,NR,3.0000
34,1,34,408.0150,-396.0141,WO,4,2,BANDAGE,hayfield,UR,2.4289,NR,3.0000
35,1,35,420.0755,-408.0735,WO,4,2,KNIFE,heliport,R,1.1234,NR,3.0000
36,1,36,432.1365,-420.1344,WI,2,1,NEST,control_room,UR,2.3200,NR,3.0000
37,1,37,444.1984,-432.1972,WI,4,2,SCISSORS,train_station,UR,2.1323,NR,3.0000
38,1,38,456.2589,-444.2578,WI,4,2,LIGHTNING,candy_store,UR,1.0746,NR,3.0000
39,1,39,468.3194,-456.3183,WO,4,2,CAGE,promenade_deck,UR,1.5990,NR,3.0000
40,1,40,480.3800,-468.3781,WO,2,1,APPLE,railroad_track,UR,1.7075,NR,3.0000
41,1,41,492.4409,-480.4388,WO,4,2,WALRUS,crosswalk,UR,1.4674,NR,3.0000
42,1,42,504.5029,-492.5012,WI,2,1,SOAP,bedroom,R,1.9433,NR,3.0000
43,2,19,10.0012,1.9999,WI,4,1,BLANKET,restaurant,UR,1.8802,NR,3.0000
44,2,20,22.0665,-10.0654,WO,4,1,GARBAGE,boardwalk,UR,1.6961,NR,3.0000
45,2,21,34.1300,-22.1286,WI,2,1,CARROT,archive,UR,2.4706,NR,3.0000
46,2,22,46.1932,-34.1917,WI,4,1,CANE,hospital_room,R,1.3952,NR,3.0000
47,2,23,58.2567,-46.2557,WI,4,1,LION,ice_cream_parlor,UR,2.2586,NR,3.0000
48,2,24,70.3192,-58.3179,WO,2,1,SCAB,pagoda,UR,1.9419,NR,3.0000
49,2,25,82.3826,-70.3817,WO,4,1,PANTS,carrousel,UR,2.3004,NR,3.0000
50,2,26,94.4480,-82.4458,WO,2,1,DESK,oilrig,UR,2.8176,NR,3.0000
51,2,27,106.5123,-94.5104,WI,4,1,ORNAMENT,classroom,R,2.9348,NR,3.0000
52,2,28,118.5764,-106.5751,WO,4,1,PAN,castle,UR,2.6686,NR,3.0000
53,2,29,130.6396,-118.6380,WO,2,1,TABLE,desert,UR,2.3138,NR,3.0000
54,2,30,142.7037,-130.7024,WI,2,1,FORK,biology_laboratory,R,2.1669,NR,3.0000
55,2,31,154.7667,-142.7657,WI,4,1,ROPE,television_studio,R,2.1946,NR,3.0000
56,2,32,166.8300,-154.8287,WO,4,1,CANARY,rice_paddy,R,1.5372,NR,3.0000
57,2,33,178.8939,-166.8922,WI,4,2,LION,ice_cream_parlor,UR,2.0074,NR,3.0000
58,2,34,190.9574,-178.9561,WI,4,1,DETECTIVE,living_room,R,1.8916,NR,3.0000
59,2,35,203.0212,-191.0202,WI,4,2,ROPE,television_studio,R,1.1039,NR,3.0000
60,2,36,215.0842,-203.0830,WO,4,1,PLUG,forest_path,UR,1.8365,NR,3.0000
61,2,37,227.1476,-215.1463,WI,4,2,DETECTIVE,living_room,R,1.3064,NR,3.0000
62,2,38,239.2114,-227.2093,WI,2,1,CHICKEN,cloister,UR,2.2800,NR,3.0000
63,2,39,251.2757,-239.2742,WO,4,2,PLUG,forest_path,UR,1.4533,NR,3.0000
64,2,40,263.3398,-251.3384,WO,4,2,PANTS,carrousel,UR,1.2179,NR,3.0000
65,2,41,275.4032,-263.4019,WI,4,2,CANE,hospital_room,R,1.0805,NR,3.0000
66,2,42,287.4663,-275.4650,WI,4,2,BLANKET,restaurant,UR,2.0294,NR,3.0000
67,2,43,299.5304,-287.5296,WO,4,1,HAWK,campsite,R,1.2980,NR,3.0000
68,2,44,311.5934,-299.5921,WO,2,1,SEAL,power_plant,UR,1.6964,NR,3.0000
69,2,45,323.6575,-311.6553,WI,2,1,OMELET,butchers_shop,R,1.3422,NR,3.0000
70,2,46,335.7217,-323.7201,WO,2,1,CANNON,fire_station,R,1.7701,NR,3.0000
71,2,47,347.7851,-335.7833,WI,2,1,PENNY,pulpit,UR,2.4973,NR,3.0000
72,2,48,359.8492,-347.8469,WI,2,1,BALLOON,nursery,R,2.0368,NR,3.0000
73,2,49,371.9135,-359.9124,WO,4,2,PAN,castle,UR,1.5943,NR,3.0000
74,2,50,383.9765,-371.9753,WO,4,2,HAWK,campsite,R,1.1828,NR,3.0000
75,2,51,396.0397,-384.0389,WI,2,1,BRAIN,theater,R,1.5813,NR,3.0000
76,2,52,408.1025,-396.1008,WO,4,1,MONKEY,hot_spring,R,1.9640,NR,3.0000
77,2,53,420.1665,-408.1658,WO,4,2,MONKEY,hot_spring,R,1.5528,NR,3.0000
78,2,54,432.2293,-420.2279,WO,2,1,BUTTER,rope_bridge,R,2.4688,NR,3.0000
79,2,55,444.2935,-432.2924,WI,4,2,ORNAMENT,classroom,R,1.3630,NR,3.0000
80,2,56,456.3565,-444.3556,WO,4,2,CANARY,rice_paddy,R,1.0307,NR,3.0000
81,2,57,468.4194,-456.4173,WO,4,2,GARBAGE,boardwalk,UR,1.5641,NR,3.0000
82,2,58,480.4844,-468.4834,WI,4,1,SUNBURN,bookstore,R,2.3061,NR,3.0000
83,2,59,492.5475,-480.5452,WI,4,2,SUNBURN,bookstore,R,1.0706,NR,3.0000
84,2,60,504.6122,-492.6109,WO,2,1,DOLL,nuclear_power_plant,UR,1.4773,NR,3.0000
85,3,37,150.2476,-138.2453,WI,2,1,BOAT,chicken_coop,UR,2.6305,NR,3.0000
86,3,38,162.3089,-150.3078,WO,4,1,MOTH,mountain_snowy,R,2.3028,NR,3.0000
87,3,39,174.3664,-162.3637,WI,2,1,SEAWEED,basement,UR,2.0486,NR,3.0000
88,3,40,186.4252,-174.4230,WO,2,1,KILT,cliff,UR,2.3276,NR,3.0000
89,3,41,198.4844,-186.4830,WO,4,2,MOTH,mountain_snowy,R,0.9501,NR,3.0000
90,3,42,210.5422,-198.5401,WO,4,1,CHEESE,inn,R,1.7312,NR,3.0000
91,3,43,222.6008,-210.5991,WI,4,1,EMPEROR,garage,UR,2.4399,NR,3.0000
92,3,44,234.6592,-222.6577,WI,4,1,SHELL,restaurant_kitchen,R,2.5341,NR,3.0000
93,3,45,246.7170,-234.7161,WI,4,1,ENVELOPE,kitchen,R,1.8758,NR,3.0000
94,3,46,258.7746,-246.7736,WO,4,1,ORANGE,botanical_garden,R,2.4490,NR,3.0000
95,3,47,270.8318,-258.8292,WO,4,1,PYTHON,moat,R,1.7495,NR,3.0000
96,3,48,282.8909,-270.8891,WI,2,1,SCOOTER,dorm_room,R,2.1231,NR,3.0000
97,3,49,294.9497,-282.9489,WO,2,1,QUILT,lock_chamber,R,2.3060,NR,3.0000
98,3,50,307.0070,-295.0054,WI,2,1,CRADLE,aquarium,UR,2.3760,NR,3.0000
99,3,51,319.0654,-307.0637,WO,4,1,NIGHTGOWN,butte,UR,2.3154,NR,3.0000
100,3,52,331.1236,-319.1216,WI,4,1,ANT,toyshop,R,2.2254,NR,3.0000
101,3,53,343.1818,-331.1788,WI,4,2,SHELL,restaurant_kitchen,R,1.3200,NR,3.0000
102,3,54,355.2415,-343.2392,WO,4,1,CLOAK,islet,R,2.8202,NR,3.0000
103,3,55,367.3003,-355.2981,WI,2,1,SQUIRREL,banquet_hall,R,1.5476,NR,3.0000
104,3,56,379.3593,-367.3581,WI,4,2,EMPEROR,garage,UR,1.6795,NR,3.0000
105,3,57,391.4172,-379.4160,WI,4,1,SADDLE,engine_room,UR,2.6223,NR,3.0000
106,3,58,403.4747,-391.4733,WO,4,1,SHEEP,phone_booth,NR,999.0000,R,3.0315
107,3,59,415.5330,-403.5317,WO,2,1,TRIBE,pavilion,R,2.1523,NR,3.0000
108,3,60,427.5907,-415.5888,WI,2,1,PASSPORT,reception,NR,999.0000,R,3.0093
109,3,61,439.6497,-427.6483,WO,4,2,ORANGE,botanical_garden,R,1.0359,NR,3.0000
110,3,62,451.7074,-439.7062,WI,4,1,POSTER,volleyball_court,R,1.7222,NR,3.0000
111,3,63,463.7649,-451.7632,WO,2,1,PIANO,plaza,R,1.4459,NR,3.0000
112,3,64,475.8233,-463.8221,WI,2,1,SUBMARINE,airplane_cabin,UR,2.3890,NR,3.0000
113,3,65,487.8810,-475.8802,WO,4,2,NIGHTGOWN,butte,UR,1.0900,NR,3.0000
114,3,66,499.9388,-487.9379,WI,4,1,RACQUET,dining_room,UR,2.5752,NR,3.0000
115,3,67,511.9963,-499.9949,WO,2,1,SHARK,office_building,UR,2.3101,NR,3.0000
116,3,68,524.0544,-512.0533,WO,4,2,SHEEP,phone_booth,R,0.9394,NR,3.0000
117,3,69,536.1124,-524.1108,WO,2,1,MOUSE,cottage_garden,R,1.9995,NR,3.0000
118,3,70,548.1707,-536.1696,WI,4,2,ANT,toyshop,R,0.9498,NR,3.0000
119,3,71,560.2291,-548.2275,WO,4,2,CLOAK,islet,R,1.7545,NR,3.0000
120,3,72,572.2875,-560.2863,WI,4,2,POSTER,volleyball_court,R,1.0729,NR,3.0000
121,3,73,584.3452,-572.3440,WO,4,2,PYTHON,moat,R,0.9182,NR,3.0000
122,3,74,596.4036,-584.4011,WI,4,2,RACQUET,dining_room,UR,1.9638,NR,3.0000
123,3,75,608.4628,-596.4617,WI,4,2,SADDLE,engine_room,R,2.2660,NR,3.0000
124,3,76,620.5212,-608.5190,WO,2,1,ROSARY,river,UR,2.7029,NR,3.0000
125,3,77,632.5800,-620.5782,WI,4,2,ENVELOPE,kitchen,R,0.9639,NR,3.0000
126,3,78,644.6384,-632.6376,WO,4,2,CHEESE,inn,R,1.1760,NR,3.0000
127,4,55,10.0023,2.0000,WI,4,1,BASKET,shopping_mall,R,1.4574,NR,3.0000
128,4,56,22.0621,-10.0611,WO,4,1,OATMEAL,fire_escape,R,1.2554,NR,3.0000
129,4,57,34.1197,-22.1179,WI,4,1,BANANA,parking_garage,R,1.2684,NR,3.0000
130,4,58,46.1778,-34.1756,WI,4,2,BASKET,shopping_mall,R,0.9295,NR,3.0000
131,4,59,58.2362,-46.2349,WI,4,1,KALE,baggage_claim,UR,2.5343,NR,3.0000
132,4,60,70.2945,-58.2934,WO,4,1,LANTERN,mausoleum,R,1.3711,NR,3.0000
133,4,61,82.3520,-70.3498,WI,4,1,FROG,hotel_room,UR,2.1952,NR,3.0000
134,4,62,94.4113,-82.4093,WI,2,1,ROCK,orchestra_pit,R,2.6384,NR,3.0000
135,4,63,106.4696,-94.4679,WI,2,1,PENCIL,athletic_field,R,1.9495,NR,3.0000
136,4,64,118.5274,-106.5253,WO,4,1,HARPOON,ocean,R,1.4171,NR,3.0000
137,4,65,130.5866,-118.5856,WI,4,1,CHERRY,bakery,R,1.3683,NR,3.0000
138,4,66,142.6439,-130.6429,WI,4,2,KALE,baggage_claim,R,1.7160,NR,3.0000
139,4,67,154.7018,-142.6999,WI,4,1,EAGLE,cubicle,R,1.7863,NR,3.0000
140,4,68,166.7602,-154.7592,WO,4,1,OWL,beach,R,1.1846,NR,3.0000
141,4,69,178.8175,-166.8158,WI,2,1,PUDDLE,stage,UR,2.6854,NR,3.0000
142,4,70,190.8763,-178.8741,WO,2,1,FENCE,observatory,R,2.1310,NR,3.0000
143,4,71,202.9349,-190.9335,WO,4,1,DRUM,driving_range,R,2.4340,NR,3.0000
144,4,72,214.9938,-202.9928,WO,4,2,LANTERN,mausoleum,R,0.8849,NR,3.0000
145,4,73,227.0513,-215.0495,WI,4,2,CHERRY,bakery,R,1.3874,NR,3.0000
146,4,74,239.1097,-227.1087,WO,2,1,TWEEZERS,canal,UR,2.0735,NR,3.0000
147,4,75,251.1676,-239.1666,WI,4,1,PIE,assembly_line,R,2.5660,NR,3.0000
148,4,76,263.2251,-251.2236,WI,2,1,UMBRELLA,boxing_ring,UR,2.5253,NR,3.0000
149,4,77,275.2835,-263.2824,WO,2,1,CORAL,market,R,1.6986,NR,3.0000
150,4,78,287.3412,-275.3400,WI,2,1,MAGICIAN,bowling_alley,NR,999.0000,UR,3.0820
151,4,79,299.3987,-287.3967,WO,2,1,MITTEN,iceberg,R,1.6519,NR,3.0000
152,4,80,311.4574,-299.4562,WO,4,2,HARPOON,ocean,R,0.8974,NR,3.0000
153,4,81,323.5150,-311.5138,WI,4,2,BANANA,parking_garage,R,1.6158,NR,3.0000
154,4,82,335.5734,-323.5722,WO,4,1,JUGGLER,mosque,R,1.7810,NR,3.0000
155,4,83,347.6311,-335.6303,WO,4,2,DRUM,driving_range,R,1.8516,NR,3.0000
156,4,84,359.6886,-347.6866,WI,4,2,EAGLE,cubicle,R,1.5200,NR,3.0000
157,4,85,371.7478,-359.7469,WI,2,1,STORK,bathroom,UR,2.4931,NR,3.0000
158,4,86,383.8052,-371.8039,WO,4,2,JUGGLER,mosque,R,1.3003,NR,3.0000
159,4,87,395.8633,-383.8614,WI,2,1,WINE,throne_room,R,1.9283,NR,3.0000
160,4,88,407.9219,-395.9210,WO,2,1,SALAD,hill,R,2.6466,NR,3.0000
161,4,89,419.9795,-407.9782,WO,4,2,OWL,beach,R,1.6750,NR,3.0000
162,4,90,432.0379,-420.0369,WI,4,2,PIE,assembly_line,R,1.4894,NR,3.0000
163,4,91,444.0957,-432.0945,WO,4,2,OATMEAL,fire_escape,R,1.4717,NR,3.0000
164,4,92,456.1540,-444.1533,WO,4,1,CRAB,badlands,UR,2.0103,NR,3.0000
165,4,93,468.2114,-456.2100,WI,4,2,FROG,hotel_room,UR,2.5027,NR,3.0000
166,4,94,480.2695,-468.2686,WO,2,1,KEG,formal_garden,R,2.0919,NR,3.0000
167,4,95,492.3276,-480.3268,WO,4,2,CRAB,badlands,UR,2.2656,NR,3.0000
168,4,96,504.3852,-492.3835,WO,2,1,SPONGE,garbage_dump,R,1.9997,NR,3.0000
169,5,73,10.0019,1.9998,WI,2,1,NEEDLE,home_office,UR,2.1148,NR,3.0000
170,5,74,22.0809,-10.0790,WI,4,1,TELEGRAPH,laundromat,NR,1.7032,NR,3.0000
171,5,75,34.1590,-22.1574,WI,4,1,TIGER,ballroom,UR,2.3305,NR,3.0000
172,5,76,46.2371,-34.2363,WO,4,1,HATCHET,landing_deck,UR,2.4955,NR,3.0000
173,5,77,58.3137,-46.3109,WO,4,1,LIME,igloo,NR,2.5887,NR,3.0000
174,5,78,70.3935,-58.3921,WO,4,2,HATCHET,landing_deck,UR,2.1605,NR,3.0000
175,5,79,82.4710,-70.4698,WI,2,1,SYRUP,catacomb,R,2.1340,NR,3.0000
176,5,80,94.5485,-82.5476,WI,2,1,BIBLE,library,R,1.5369,NR,3.0000
177,5,81,106.6262,-94.6242,WO,2,1,NECKLACE,rock_arch,UR,2.8784,NR,3.0000
178,5,82,118.7044,-106.7034,WI,4,1,COFFEE,riding_arena,R,2.1082,NR,3.0000
179,5,83,130.7819,-118.7810,WO,4,1,MANURE,palace,UR,2.1833,NR,3.0000
180,5,84,142.8590,-130.8571,WI,4,1,TRAY,attic,UR,2.1327,NR,3.0000
181,5,85,154.9367,-142.9359,WI,4,1,BELL,computer_room,R,1.7218,NR,3.0000
182,5,86,167.0142,-155.0132,WI,4,2,TELEGRAPH,laundromat,UR,1.5659,NR,3.0000
183,5,87,179.0913,-167.0896,WO,4,1,ORCHID,bridge,UR,2.2021,NR,3.0000
184,5,88,191.1699,-179.1687,WO,4,2,ORCHID,bridge,UR,1.0545,NR,3.0000
185,5,89,203.2471,-191.2449,WO,2,1,TEETH,basilica,UR,1.5667,NR,3.0000
186,5,90,215.3252,-203.3239,WI,4,2,TRAY,attic,UR,1.6735,NR,3.0000
187,5,91,227.4031,-215.4020,WO,2,1,WRENCH,hangar,R,1.3739,NR,3.0000
188,5,92,239.4803,-227.4786,WO,2,1,SNOW,canyon,R,1.2925,NR,3.0000
189,5,93,251.5588,-239.5568,WI,4,2,COFFEE,riding_arena,R,1.7414,NR,3.0000
190,5,94,263.6370,-251.6343,WI,4,1,STOOL,elevator,R,1.4131,NR,3.0000
191,5,95,275.7159,-263.7142,WO,2,1,ROCKER,hotel,R,1.7691,NR,3.0000
192,5,96,287.7945,-275.7934,WI,4,2,STOOL,elevator,R,1.4066,NR,3.0000
193,5,97,299.8717,-287.8696,WI,2,1,BRACELET,natural_history_museum,R,1.8900,R,6.6470
194,5,98,311.9506,-299.9492,WO,4,2,LIME,igloo,UR,1.6486,NR,3.0000
195,5,99,324.0281,-312.0269,WI,2,1,MUSSEL,limousine_interior,R,1.9636,NR,3.0000
196,5,100,336.1056,-324.1037,WO,2,1,TULIP,balcony,UR,2.0500,NR,3.0000
197,5,101,348.1844,-336.1823,WO,4,1,HOSE,highway,R,2.3821,NR,3.0000
198,5,102,360.2629,-348.2598,WO,4,2,HOSE,highway,R,1.8983,NR,3.0000
199,5,103,372.3430,-360.3408,WI,4,1,FIDDLE,museum,R,1.8481,NR,3.0000
200,5,104,384.4213,-372.4204,WO,4,1,BROOM,ice_floe,UR,2.1961,NR,3.0000
201,5,105,396.4989,-384.4966,WI,2,1,WALLET,clothing_store,R,1.6007,NR,3.0000
202,5,106,408.5777,-396.5760,WI,2,1,OYSTER,childs_room,UR,1.9067,NR,3.0000
203,5,107,420.6563,-408.6555,WO,2,1,MUFFIN,pasture,UR,1.8812,NR,3.0000
204,5,108,432.7340,-420.7319,WO,4,1,ELEPHANT,bayou,R,2.0140,NR,3.0000
205,5,109,444.8124,-432.8112,WI,4,2,BELL,computer_room,R,1.7938,NR,3.0000
206,5,110,456.8904,-444.8880,WI,4,2,FIDDLE,museum,R,1.4231,NR,3.0000
207,5,111,468.9690,-456.9679,WO,4,2,BROOM,ice_floe,UR,1.4350,NR,3.0000
208,5,112,481.0466,-469.0438,WO,4,2,ELEPHANT,bayou,R,1.4556,NR,3.0000
209,5,113,493.1263,-481.1250,WI,4,2,TIGER,ballroom,R,1.9397,NR,3.0000
210,5,114,505.2041,-493.2026,WO,4,2,MANURE,palace,UR,1.2654,NR,3.0000
211,6,91,10.0017,2.0001,WI,4,1,ASPARAGUS,bistro,R,1.7311,NR,3.0000
212,6,92,22.0724,-10.0714,WI,2,1,BUCKET,lobby,R,1.8170,NR,3.0000
213,6,93,34.1401,-22.1389,WO,4,1,NAPKIN,dock,R,2.0142,NR,3.0000
214,6,94,46.2084,-34.2072,WI,4,1,MOON,kitchenette,UR,2.0995,NR,3.0000
215,6,95,58.2764,-46.2746,WO,4,1,SAIL,harbor,R,1.2882,NR,3.0000
216,6,96,70.3455,-58.3435,WO,4,1,SANDAL,corral,R,1.6936,NR,3.0000
217,6,97,82.4144,-70.4128,WO,4,1,SCROLL,pond,UR,1.9618,NR,3.0000
218,6,98,94.4831,-82.4819,WI,2,1,CLAM,sauna,UR,1.8867,NR,3.0000
219,6,99,106.5508,-94.5489,WI,4,1,SCORPION,squash_court,UR,1.9236,NR,3.0000
220,6,100,118.6194,-106.6175,WI,4,1,ACROBAT,jacuzzi,R,2.0564,NR,3.0000
221,6,101,130.6903,-118.6881,WO,2,1,ARROW,fountain,R,1.8220,NR,3.0000
222,6,102,142.7592,-130.7578,WO,4,1,YACHT,fishpond,UR,2.5305,NR,3.0000
223,6,103,154.8275,-142.8261,WI,4,1,VIOLIN,locker_room,UR,2.4241,NR,3.0000
224,6,104,166.8963,-154.8949,WO,4,2,NAPKIN,dock,R,1.1174,NR,3.0000
225,6,105,178.9647,-166.9630,WO,4,1,VODKA,marsh,R,2.1470,NR,3.0000
226,6,106,191.0338,-179.0330,WI,4,2,VIOLIN,locker_room,UR,1.1584,NR,3.0000
227,6,107,203.1014,-191.0998,WI,2,1,SNAIL,pantry,R,2.1880,NR,3.0000
228,6,108,215.1698,-203.1690,WI,4,1,WITCH,florist_shop,UR,2.1054,NR,3.0000
229,6,109,227.2381,-215.2373,WO,2,1,ASPIRIN,herb_garden,UR,1.6459,NR,3.0000
230,6,110,239.3055,-227.3034,WO,4,2,SAIL,harbor,R,1.1943,NR,3.0000
231,6,111,251.3752,-239.3736,WO,2,1,LETTUCE,boat_deck,UR,1.7580,NR,3.0000
232,6,112,263.4434,-251.4425,WI,2,1,ANCHOR,stable,UR,2.3228,NR,3.0000
233,6,113,275.5113,-263.5104,WI,4,1,FOX,jewelry_shop,R,2.3340,NR,3.0000
234,6,114,287.5809,-275.5789,WI,2,1,BANDIT,beauty_salon,UR,1.8656,NR,3.0000
235,6,115,299.6503,-287.6486,WO,4,2,SCROLL,pond,UR,1.7061,NR,3.0000
236,6,116,311.7197,-299.7183,WO,2,1,RIFLE,boathouse,UR,2.6731,NR,3.0000
237,6,117,323.7880,-311.7871,WO,4,2,VODKA,marsh,R,1.5679,NR,3.0000
238,6,118,335.8560,-323.8542,WI,4,2,ASPARAGUS,bistro,R,1.8359,NR,3.0000
239,6,119,347.9255,-335.9246,WO,2,1,POWDER,field_cultivated,NR,999.0000,UR,3.2717
240,6,120,359.9934,-347.9914,WO,4,2,SANDAL,corral,R,1.5085,NR,3.0000
241,6,121,372.0629,-360.0617,WI,4,2,FOX,jewelry_shop,R,1.1102,NR,3.0000
242,6,122,384.1309,-372.1290,WI,4,2,ACROBAT,jacuzzi,R,1.1484,NR,3.0000
243,6,123,396.2013,-384.2005,WO,4,2,YACHT,fishpond,UR,1.5857,NR,3.0000
244,6,124,408.2699,-396.2681,WI,2,1,WOLF,kennel,R,1.4594,NR,3.0000
245,6,125,420.3387,-408.3374,WO,2,1,VELVET,ice_shelf,UR,2.4883,NR,3.0000
246,6,126,432.4080,-420.4069,WO,2,1,MUSTARD,raceway,UR,2.0606,NR,3.0000
247,6,127,444.4762,-432.4741,WO,4,1,THONG,park,R,1.6360,NR,3.0000
248,6,128,456.5455,-444.5440,WI,2,1,RING,burial_chamber,R,1.4249,NR,3.0000
249,6,129,468.6147,-456.6137,WI,4,2,MOON,kitchenette,UR,2.0049,NR,3.0000
250,6,130,480.6827,-468.6816,WO,4,2,THONG,park,R,1.5227,NR,3.0000
251,6,131,492.7515,-480.7505,WI,4,2,WITCH,florist_shop,UR,1.3984,NR,3.0000
252,6,132,504.8203,-492.8187,WI,4,2,SCORPION,squash_court,UR,1.4676,NR,3.0000
253,7,109,10.0019,2.0004,WI,4,3,SCISSORS,train_station,UR,2.1174,NR,3.0000
254,7,110,22.0689,-10.0671,WI,4,3,SHOVEL,escalator,UR,1.7550,NR,3.0000
255,7,111,34.1345,-22.1334,WI,2,2,HAM,diner,R,1.0635,NR,3.0000
256,7,112,46.1987,-34.1978,WO,4,3,KNIFE,heliport,R,1.7892,NR,3.0000
257,7,113,58.2632,-46.2625,WI,4,3,BEAVER,badminton_court,UR,1.8247,NR,3.0000
258,7,114,70.3271,-58.3262,WO,2,2,HAMMER,putting_green,R,2.1173,NR,3.0000
259,7,115,82.3911,-70.3892,WI,4,4,SCISSORS,train_station,UR,1.4503,NR,3.0000
260,7,116,94.4568,-82.4558,WI,4,4,SHOVEL,escalator,UR,1.8554,NR,3.0000
261,7,117,106.5212,-94.5194,WO,4,3,WALRUS,crosswalk,R,2.3356,NR,3.0000
262,7,118,118.5896,-106.5862,WO,2,2,DAMSEL,outhouse,UR,1.7961,NR,3.0000
263,7,119,130.6561,-118.6544,WI,2,2,SOAP,bedroom,R,1.7046,NR,3.0000
264,7,120,142.7209,-130.7187,WO,2,2,APPLE,railroad_track,UR,1.9015,NR,3.0000
265,7,121,154.7861,-142.7841,WI,2,2,NEST,control_room,NR,999.0000,NR,3.0000
266,7,122,166.8525,-154.8512,WO,4,3,CAGE,promenade_deck,R,1.4007,NR,3.0000
267,7,123,178.9175,-166.9155,WI,4,3,SLIPPER,bar,UR,1.3484,NR,3.0000
268,7,124,190.9829,-178.9815,WO,4,3,ARMOR,crevasse,UR,1.2977,NR,3.0000
269,7,125,203.0475,-191.0458,WO,4,3,DAISY,gazebo,R,1.3443,NR,3.0000
270,7,126,215.1131,-203.1109,WI,4,3,LIGHTNING,candy_store,UR,1.4923,NR,3.0000
271,7,127,227.1783,-215.1775,WI,2,2,RICE,dentists_office,R,1.2961,NR,3.0000
272,7,128,239.2428,-227.2406,WO,2,2,DOVE,oil_refinery,UR,1.5259,NR,3.0000
273,7,129,251.3086,-239.3064,WI,2,2,DUST,subway_interior,R,1.2603,NR,3.0000
274,7,130,263.3738,-251.3724,WO,4,4,KNIFE,heliport,R,1.1608,NR,3.0000
275,7,131,275.4391,-263.4383,WI,2,2,TROLLEY,closet,UR,1.7166,NR,3.0000
276,7,132,287.5033,-275.5011,WO,4,4,DAISY,gazebo,R,1.2755,NR,3.0000
277,7,133,299.5689,-287.5680,WO,4,3,BANDAGE,hayfield,UR,1.3907,NR,3.0000
278,7,134,311.6329,-299.6319,WO,4,4,BANDAGE,hayfield,UR,1.4688,NR,3.0000
279,7,135,323.6973,-311.6965,WI,4,3,CLARINET,operating_room,UR,2.0429,NR,3.0000
280,7,136,335.7617,-323.7589,WO,2,2,JACKET,lift_bridge,UR,1.5426,NR,3.0000
281,7,137,347.8277,-335.8261,WI,4,4,SLIPPER,bar,UR,1.3643,NR,3.0000
282,7,138,359.8925,-347.8914,WI,4,4,BEAVER,badminton_court,R,1.8031,NR,3.0000
283,7,139,371.9570,-359.9560,WO,2,2,VINE,orchard,R,1.0400,NR,3.0000
284,7,140,384.0213,-372.0195,WI,2,2,SCOTCH,auditorium,R,2.2270,NR,3.0000
285,7,141,396.0868,-384.0850,WO,4,3,PIGEON,barn,R,1.0656,NR,3.0000
286,7,142,408.1519,-396.1508,WI,4,3,RASH,auto_factory,UR,1.3833,NR,3.0000
287,7,143,420.2167,-408.2145,WO,4,4,ARMOR,crevasse,UR,1.3949,NR,3.0000
288,7,144,432.2824,-420.2817,WO,4,4,WALRUS,crosswalk,R,1.1767,NR,3.0000
289,7,145,444.3465,-432.3450,WI,4,4,RASH,auto_factory,UR,1.1419,NR,3.0000
290,7,146,456.4111,-444.4096,WO,2,2,TROPHY,general_store,UR,1.6249,NR,3.0000
291,7,147,468.4759,-456.4750,WI,4,4,LIGHTNING,candy_store,UR,1.4380,NR,3.0000
292,7,148,480.5405,-468.5395,WO,4,4,CAGE,promenade_deck,R,1.1950,NR,3.0000
293,7,149,492.6050,-480.6037,WO,4,4,PIGEON,barn,R,1.2239,NR,3.0000
294,7,150,504.6698,-492.6686,WI,4,4,CLARINET,operating_room,R,1.6705,NR,3.0000
295,8,127,10.0033,1.9979,WO,4,3,PAN,castle,R,1.8573,NR,3.0000
296,8,128,22.0648,-10.0626,WO,2,2,CANNON,fire_station,R,1.2705,NR,3.0000
297,8,129,34.1262,-22.1239,WO,4,4,PAN,castle,R,1.1166,NR,3.0000
298,8,130,46.1868,-34.1847,WI,4,3,BLANKET,restaurant,UR,2.0021,NR,3.0000
299,8,131,58.2476,-46.2464,WO,4,3,PANTS,carrousel,R,1.5322,NR,3.0000
300,8,132,70.3081,-58.3067,WI,4,3,CANE,hospital_room,R,1.3960,NR,3.0000
301,8,133,82.3688,-70.3668,WI,4,3,SUNBURN,bookstore,R,1.4958,NR,3.0000
302,8,134,94.4300,-82.4287,WI,4,3,LION,ice_cream_parlor,UR,1.5819,NR,3.0000
303,8,135,106.4900,-94.4882,WO,4,3,MONKEY,hot_spring,R,1.4946,NR,3.0000
304,8,136,118.5504,-106.5494,WI,4,3,ROPE,television_studio,R,1.3482,NR,3.0000
305,8,137,130.6107,-118.6090,WO,4,4,MONKEY,hot_spring,R,1.5452,NR,3.0000
306,8,138,142.6709,-130.6688,WI,4,4,ROPE,television_studio,R,1.4035,NR,3.0000
307,8,139,154.7321,-142.7303,WI,4,4,SUNBURN,bookstore,R,1.4444,NR,3.0000
308,8,140,166.7926,-154.7915,WO,4,3,CANARY,rice_paddy,R,2.5299,NR,3.0000
309,8,141,178.8524,-166.8504,WI,4,4,BLANKET,restaurant,UR,1.5694,NR,3.0000
310,8,142,190.9129,-178.9109,WO,2,2,SCAB,pagoda,UR,2.3976,NR,3.0000
311,8,143,202.9737,-190.9723,WI,2,2,PENNY,pulpit,UR,2.2026,NR,3.0000
312,8,144,215.0345,-203.0323,WI,4,3,DETECTIVE,living_room,R,1.4620,NR,3.0000
313,8,145,227.0954,-215.0947,WO,4,3,GARBAGE,boardwalk,UR,1.8657,NR,3.0000
314,8,146,239.1550,-227.1540,WO,4,3,HAWK,campsite,R,2.3278,NR,3.0000
315,8,147,251.2151,-239.2136,WI,4,4,DETECTIVE,living_room,R,1.1781,NR,3.0000
316,8,148,263.2752,-251.2732,WO,2,2,SEAL,power_plant,UR,1.1048,NR,3.0000
317,8,149,275.3366,-263.3347,WI,4,3,ORNAMENT,classroom,R,2.0000,NR,3.0000
318,8,150,287.3973,-275.3964,WO,2,2,DOLL,nuclear_power_plant,UR,2.1207,NR,3.0000
319,8,151,299.4569,-287.4550,WO,2,2,DESK,oilrig,UR,1.7529,NR,3.0000
320,8,152,311.5181,-299.5161,WI,2,2,BRAIN,theater,R,1.6212,NR,3.0000
321,8,153,323.5789,-311.5777,WI,4,4,CANE,hospital_room,R,2.0061,NR,3.0000
322,8,154,335.6394,-323.6381,WI,2,2,CARROT,archive,UR,1.9693,NR,3.0000
323,8,155,347.6993,-335.6985,WO,4,4,GARBAGE,boardwalk,UR,1.2888,NR,3.0000
324,8,156,359.7587,-347.7579,WO,4,4,HAWK,campsite,R,0.9429,NR,3.0000
325,8,157,371.8189,-359.8177,WI,4,4,ORNAMENT,classroom,R,0.9481,NR,3.0000
326,8,158,383.8790,-371.8776,WO,2,2,BUTTER,rope_bridge,R,1.2871,NR,3.0000
327,8,159,395.9398,-383.9387,WO,4,3,PLUG,forest_path,UR,1.6589,NR,3.0000
328,8,160,407.9998,-395.9978,WO,2,2,TABLE,desert,UR,1.6485,NR,3.0000
329,8,161,420.0608,-408.0599,WI,2,2,BALLOON,nursery,R,1.5588,NR,3.0000
330,8,162,432.1210,-420.1196,WI,4,4,LION,ice_cream_parlor,UR,1.3161,NR,3.0000
331,8,163,444.1814,-432.1795,WO,4,4,PLUG,forest_path,R,1.8413,NR,3.0000
332,8,164,456.2428,-444.2416,WI,2,2,FORK,biology_laboratory,R,1.1985,NR,3.0000
333,8,165,468.3028,-456.3006,WO,4,4,CANARY,rice_paddy,R,1.1788,NR,3.0000
334,8,166,480.3641,-468.3633,WO,4,4,PANTS,carrousel,R,1.2651,NR,3.0000
335,8,167,492.4244,-480.4237,WI,2,2,CHICKEN,cloister,UR,2.1258,NR,3.0000
336,8,168,504.4840,-492.4813,WI,2,2,OMELET,butchers_shop,R,1.4273,NR,3.0000
337,9,145,10.0024,1.9988,WI,4,3,RACQUET,dining_room,R,1.6378,NR,3.0000
338,9,146,22.0642,-10.0630,WI,4,3,EMPEROR,garage,UR,1.2998,NR,3.0000
339,9,147,34.1237,-22.1226,WI,4,3,POSTER,volleyball_court,R,1.4421,NR,3.0000
340,9,148,46.1832,-34.1817,WO,2,2,TRIBE,pavilion,R,1.2068,NR,3.0000
341,9,149,58.2431,-46.2413,WO,4,3,MOTH,mountain_snowy,R,2.1893,NR,3.0000
342,9,150,70.3032,-58.3017,WO,4,4,MOTH,mountain_snowy,R,0.8648,NR,3.0000
343,9,151,82.3632,-70.3616,WI,4,3,SADDLE,engine_room,R,1.2620,NR,3.0000
344,9,152,94.4233,-82.4218,WI,4,3,ANT,toyshop,R,1.2839,NR,3.0000
345,9,153,106.4838,-94.4830,WO,4,3,NIGHTGOWN,butte,UR,1.4581,NR,3.0000
346,9,154,118.5431,-106.5413,WO,2,2,QUILT,lock_chamber,UR,2.1016,NR,3.0000
347,9,155,130.6040,-118.6029,WI,4,4,POSTER,volleyball_court,R,0.9645,NR,3.0000
348,9,156,142.6637,-130.6617,WO,4,3,CHEESE,inn,R,1.6179,NR,3.0000
349,9,157,154.7242,-142.7223,WI,4,3,ENVELOPE,kitchen,R,1.0789,NR,3.0000
350,9,158,166.7851,-154.7843,WI,4,4,ENVELOPE,kitchen,R,1.2826,NR,3.0000
351,9,159,178.8446,-166.8431,WI,4,3,SHELL,restaurant_kitchen,R,1.5148,NR,3.0000
352,9,160,190.9052,-178.9043,WO,4,3,PYTHON,moat,R,1.1749,NR,3.0000
353,9,161,202.9645,-190.9637,WO,4,3,SHEEP,phone_booth,R,1.4688,NR,3.0000
354,9,162,215.0237,-203.0227,WI,2,2,SEAWEED,basement,UR,1.6020,NR,3.0000
355,9,163,227.0837,-215.0828,WI,4,4,RACQUET,dining_room,R,1.1747,NR,3.0000
356,9,164,239.1433,-227.1404,WI,4,4,EMPEROR,garage,UR,1.2447,NR,3.0000
357,9,165,251.2051,-239.2035,WO,4,4,CHEESE,inn,R,2.5946,NR,3.0000
358,9,166,263.2652,-251.2639,WI,2,2,SCOOTER,dorm_room,R,2.4478,NR,3.0000
359,9,167,275.3251,-263.3232,WO,4,3,CLOAK,islet,R,1.4894,NR,3.0000
360,9,168,287.3862,-275.3854,WI,2,2,CRADLE,aquarium,UR,1.6308,NR,3.0000
361,9,169,299.4457,-287.4436,WI,2,2,BOAT,chicken_coop,UR,2.6126,NR,3.0000
362,9,170,311.5069,-299.5060,WO,2,2,SHARK,office_building,UR,2.0485,NR,3.0000
363,9,171,323.5666,-311.5657,WO,2,2,KILT,cliff,UR,1.5346,NR,3.0000
364,9,172,335.6261,-323.6243,WI,2,2,SUBMARINE,airplane_cabin,UR,1.5480,NR,3.0000
365,9,173,347.6867,-335.6860,WI,4,4,SHELL,restaurant_kitchen,R,1.0570,NR,3.0000
366,9,174,359.7462,-347.7445,WO,4,4,PYTHON,moat,R,1.3586,NR,3.0000
367,9,175,371.8069,-359.8054,WO,4,4,CLOAK,islet,R,1.6598,NR,3.0000
368,9,176,383.8669,-371.8652,WO,2,2,PIANO,plaza,R,2.1615,NR,3.0000
369,9,177,395.9272,-383.9250,WI,2,2,SQUIRREL,banquet_hall,R,1.5355,NR,3.0000
370,9,178,407.9887,-395.9868,WI,2,2,PASSPORT,reception,R,1.9001,NR,3.0000
371,9,179,420.0493,-408.0476,WO,4,3,ORANGE,botanical_garden,R,1.6912,NR,3.0000
372,9,180,432.1102,-420.1083,WO,2,2,ROSARY,river,UR,2.0074,NR,3.0000
373,9,181,444.1707,-432.1690,WO,4,4,SHEEP,phone_booth,R,1.1316,NR,3.0000
374,9,182,456.2313,-444.2304,WI,4,4,SADDLE,engine_room,R,1.3142,NR,3.0000
375,9,183,468.2915,-456.2895,WI,4,4,ANT,toyshop,R,1.0870,NR,3.0000
376,9,184,480.3519,-468.3503,WO,2,2,MOUSE,cottage_garden,R,1.6765,NR,3.0000
377,9,185,492.4128,-480.4118,WO,4,4,NIGHTGOWN,butte,UR,1.2696,NR,3.0000
378,9,186,504.4726,-492.4703,WO,4,4,ORANGE,botanical_garden,R,1.5866,NR,3.0000
379,10,163,10.0029,1.9994,WI,2,2,MAGICIAN,bowling_alley,UR,1.8595,NR,3.0000
380,10,164,22.0736,-10.0718,WO,4,3,HARPOON,ocean,R,0.8572,NR,3.0000
381,10,165,34.1417,-22.1397,WO,4,3,JUGGLER,mosque,R,2.5159,NR,3.0000
382,10,166,46.2097,-34.2071,WO,4,3,LANTERN,mausoleum,R,2.3698,NR,3.0000
383,10,167,58.2789,-46.2773,WI,4,3,KALE,baggage_claim,UR,2.5271,NR,3.0000
384,10,168,70.3473,-58.3453,WO,2,2,MITTEN,iceberg,R,2.2837,NR,3.0000
385,10,169,82.4159,-70.4150,WI,4,3,CHERRY,bakery,R,2.1287,NR,3.0000
386,10,170,94.4832,-82.4824,WI,4,3,BASKET,shopping_mall,R,2.1425,NR,3.0000
387,10,171,106.5499,-94.5475,WO,4,4,LANTERN,mausoleum,R,2.2272,NR,3.0000
388,10,172,118.6197,-106.6166,WI,4,4,KALE,baggage_claim,R,2.5117,NR,3.0000
389,10,173,130.6892,-118.6860,WO,4,3,OATMEAL,fire_escape,R,2.4360,NR,3.0000
390,10,174,142.7590,-130.7557,WI,4,3,BANANA,parking_garage,R,1.8351,NR,3.0000
391,10,175,154.8289,-142.8271,WI,4,4,BANANA,parking_garage,R,1.0715,NR,3.0000
392,10,176,166.8968,-154.8949,WO,4,4,OATMEAL,fire_escape,R,1.1804,NR,3.0000
393,10,177,178.9650,-166.9629,WI,2,2,UMBRELLA,boxing_ring,UR,2.1521,NR,3.0000
394,10,178,191.0344,-179.0323,WI,4,3,EAGLE,cubicle,R,2.0150,NR,3.0000
395,10,179,203.1036,-191.1018,WO,2,2,CORAL,market,R,2.0183,NR,3.0000
396,10,180,215.1716,-203.1706,WO,4,3,CRAB,badlands,R,1.5512,NR,3.0000
397,10,181,227.2392,-215.2383,WI,2,2,WINE,throne_room,R,1.9099,NR,3.0000
398,10,182,239.3068,-227.3056,WO,2,2,FENCE,observatory,R,2.0516,NR,3.0000
399,10,183,251.3744,-239.3722,WI,4,4,CHERRY,bakery,R,1.8308,NR,3.0000
400,10,184,263.4435,-251.4423,WI,4,3,FROG,hotel_room,UR,2.2130,NR,3.0000
401,10,185,275.5112,-263.5095,WO,2,2,SPONGE,garbage_dump,R,1.8350,NR,3.0000
402,10,186,287.5791,-275.5773,WO,4,3,OWL,beach,R,1.9597,NR,3.0000
403,10,187,299.6476,-287.6460,WO,4,4,JUGGLER,mosque,R,2.1158,NR,3.0000
404,10,188,311.7154,-299.7134,WI,4,4,FROG,hotel_room,UR,1.7844,NR,3.0000
405,10,189,323.7843,-311.7828,WO,2,2,TWEEZERS,canal,UR,1.6787,NR,3.0000
406,10,190,335.8523,-323.8507,WI,4,3,PIE,assembly_line,UR,2.1137,NR,3.0000
407,10,191,347.9203,-335.9186,WO,2,2,SALAD,hill,UR,2.5526,NR,3.0000
408,10,192,359.9889,-347.9876,WI,2,2,PENCIL,athletic_field,R,1.9960,NR,3.0000
409,10,193,372.0565,-360.0543,WO,4,3,DRUM,driving_range,R,2.5631,NR,3.0000
410,10,194,384.1255,-372.1232,WO,4,4,CRAB,badlands,R,1.0704,NR,3.0000
411,10,195,396.1941,-384.1934,WI,2,2,STORK,bathroom,R,2.0363,NR,3.0000
412,10,196,408.2616,-396.2593,WI,4,4,BASKET,shopping_mall,R,2.1617,NR,3.0000
413,10,197,420.3310,-408.3299,WO,4,4,DRUM,driving_range,R,1.1818,NR,3.0000
414,10,198,432.3987,-420.3976,WI,4,4,PIE,assembly_line,UR,1.6845,NR,3.0000
415,10,199,444.4662,-432.4646,WI,4,4,EAGLE,cubicle,R,1.9846,NR,3.0000
416,10,200,456.5344,-444.5336,WO,4,4,HARPOON,ocean,R,0.9493,NR,3.0000
417,10,201,468.6016,-456.6007,WO,2,2,KEG,formal_garden,R,2.0429,NR,3.0000
418,10,202,480.6696,-468.6676,WI,2,2,ROCK,orchestra_pit,R,2.1910,NR,3.0000
419,10,203,492.7383,-480.7375,WO,4,4,OWL,beach,R,1.9005,NR,3.0000
420,10,204,504.8061,-492.8051,WI,2,2,PUDDLE,stage,UR,2.2411,NR,3.0000
421,11,181,10.0063,1.9947,WO,4,3,HATCHET,landing_deck,UR,2.2655,NR,3.0000
422,11,182,22.0753,-10.0734,WI,4,3,STOOL,elevator,R,2.0634,NR,3.0000
423,11,183,34.1436,-22.1425,WI,4,3,FIDDLE,museum,R,2.3069,NR,3.0000
424,11,184,46.2105,-34.2089,WO,4,3,MANURE,palace,R,1.3938,NR,3.0000
425,11,185,58.2786,-46.2776,WO,4,3,BROOM,ice_floe,UR,1.7102,NR,3.0000
426,11,186,70.3459,-58.3443,WO,4,3,ELEPHANT,bayou,R,1.6987,NR,3.0000
427,11,187,82.4143,-70.4130,WI,2,2,BIBLE,library,R,1.6649,NR,3.0000
428,11,188,94.4821,-82.4812,WI,2,2,MUSSEL,limousine_interior,R,1.4379,NR,3.0000
429,11,189,106.5494,-94.5484,WO,2,2,MUFFIN,pasture,UR,1.8022,NR,3.0000
430,11,190,118.6171,-106.6163,WI,4,3,TELEGRAPH,laundromat,UR,2.0801,NR,3.0000
431,11,191,130.6844,-118.6829,WO,2,2,ROCKER,hotel,UR,2.2847,NR,3.0000
432,11,192,142.7521,-130.7488,WI,2,2,OYSTER,childs_room,UR,1.7462,NR,3.0000
433,11,193,154.8219,-142.8203,WI,4,3,COFFEE,riding_arena,R,1.8625,NR,3.0000
434,11,194,166.8896,-154.8882,WO,4,4,BROOM,ice_floe,UR,1.7079,NR,3.0000
435,11,195,178.9576,-166.9560,WO,4,3,LIME,igloo,UR,2.3525,NR,3.0000
436,11,196,191.0257,-179.0235,WI,4,4,COFFEE,riding_arena,UR,1.4123,NR,3.0000
437,11,197,203.0939,-191.0919,WO,4,3,ORCHID,bridge,UR,2.0348,NR,3.0000
438,11,198,215.1628,-203.1613,WI,2,2,BRACELET,natural_history_museum,UR,2.0320,NR,3.0000
439,11,199,227.2307,-215.2300,WI,4,3,TRAY,attic,UR,1.8537,NR,3.0000
440,11,200,239.2980,-227.2972,WO,2,2,SNOW,canyon,R,1.7310,NR,3.0000
441,11,201,251.3652,-239.3631,WI,4,4,STOOL,elevator,R,1.7678,NR,3.0000
442,11,202,263.4335,-251.4313,WI,4,4,TRAY,attic,UR,1.5720,NR,3.0000
443,11,203,275.5026,-263.5006,WI,4,3,TIGER,ballroom,R,2.5615,NR,3.0000
444,11,204,287.5707,-275.5697,WO,4,4,ORCHID,bridge,UR,1.6156,NR,3.0000
445,11,205,299.6385,-287.6376,WI,4,4,FIDDLE,museum,R,1.8686,NR,3.0000
446,11,206,311.7055,-299.7034,WO,2,2,NECKLACE,rock_arch,UR,1.9929,NR,3.0000
447,11,207,323.7738,-311.7728,WI,2,2,SYRUP,catacomb,UR,1.8529,NR,3.0000
448,11,208,335.8416,-323.8399,WI,4,3,BELL,computer_room,R,1.8914,NR,3.0000
449,11,209,347.9095,-335.9082,WO,4,4,ELEPHANT,bayou,R,1.6786,NR,3.0000
450,11,210,359.9775,-347.9752,WI,2,2,NEEDLE,home_office,UR,1.9881,NR,3.0000
451,11,211,372.0460,-360.0453,WI,4,4,TELEGRAPH,laundromat,UR,1.3462,NR,3.0000
452,11,212,384.1129,-372.1117,WO,4,3,HOSE,highway,R,1.8150,NR,3.0000
453,11,213,396.1807,-384.1787,WO,2,2,TEETH,basilica,UR,1.5720,NR,3.0000
454,11,214,408.2491,-396.2478,WI,2,2,WALLET,clothing_store,R,2.0649,NR,3.0000
455,11,215,420.3172,-408.3154,WO,4,4,LIME,igloo,UR,1.4620,NR,3.0000
456,11,216,432.3854,-420.3838,WO,2,2,TULIP,balcony,UR,1.8041,NR,3.0000
457,11,217,444.4534,-432.4520,WI,4,4,BELL,computer_room,R,1.4871,NR,3.0000
458,11,218,456.5215,-444.5199,WO,4,4,HATCHET,landing_deck,UR,1.9982,NR,3.0000
459,11,219,468.5898,-456.5876,WO,2,2,WRENCH,hangar,R,2.1937,NR,3.0000
460,11,220,480.6586,-468.6574,WO,4,4,MANURE,palace,R,2.4405,NR,3.0000
461,11,221,492.7267,-480.7259,WI,4,4,TIGER,ballroom,R,1.0748,NR,3.0000
462,11,222,504.7936,-492.7927,WO,4,4,HOSE,highway,R,1.1861,NR,3.0000
463,12,199,10.0051,1.9970,WI,2,2,BANDIT,beauty_salon,UR,2.6424,NR,3.0000
464,12,200,22.0765,-10.0746,WO,2,2,ARROW,fountain,R,1.9577,NR,3.0000
465,12,201,34.1447,-22.1435,WO,4,3,YACHT,fishpond,UR,2.2594,NR,3.0000
466,12,202,46.2120,-34.2109,WO,4,3,SAIL,harbor,R,1.5356,NR,3.0000
467,12,203,58.2789,-46.2782,WI,4,3,ASPARAGUS,bistro,R,1.6463,NR,3.0000
468,12,204,70.3459,-58.3427,WO,2,2,POWDER,field_cultivated,UR,1.9878,NR,3.0000
469,12,205,82.4152,-70.4138,WI,4,3,VIOLIN,locker_room,UR,1.7526,NR,3.0000
470,12,206,94.4832,-82.4814,WO,2,2,ASPIRIN,herb_garden,UR,1.8204,NR,3.0000
471,12,207,106.5508,-94.5486,WI,4,3,MOON,kitchenette,UR,1.6582,NR,3.0000
472,12,208,118.6189,-106.6181,WO,4,3,THONG,park,R,1.6481,NR,3.0000
473,12,209,130.6862,-118.6841,WO,4,3,NAPKIN,dock,R,1.4439,NR,3.0000
474,12,210,142.7543,-130.7532,WI,2,2,RING,burial_chamber,R,1.7766,NR,3.0000
475,12,211,154.8215,-142.8202,WI,2,2,WOLF,kennel,R,1.3820,NR,3.0000
476,12,212,166.8886,-154.8876,WO,4,3,SANDAL,corral,R,1.8023,NR,3.0000
477,12,213,178.9559,-166.9543,WI,4,4,VIOLIN,locker_room,UR,1.7197,NR,3.0000
478,12,214,191.0234,-179.0221,WI,4,3,ACROBAT,jacuzzi,R,1.4296,NR,3.0000
479,12,215,203.0908,-191.0890,WI,4,4,ASPARAGUS,bistro,R,1.0021,NR,3.0000
480,12,216,215.1591,-203.1581,WO,4,4,YACHT,fishpond,UR,2.0486,NR,3.0000
481,12,217,227.2261,-215.2247,WO,4,3,SCROLL,pond,UR,2.1570,NR,3.0000
482,12,218,239.2940,-227.2930,WI,4,4,ACROBAT,jacuzzi,R,1.0248,NR,3.0000
483,12,219,251.3612,-239.3600,WO,4,4,THONG,park,R,1.0152,NR,3.0000
484,12,220,263.4282,-251.4262,WI,4,3,WITCH,florist_shop,UR,1.4611,NR,3.0000
485,12,221,275.4962,-263.4952,WO,4,4,SCROLL,pond,UR,1.3604,NR,3.0000
486,12,222,287.5632,-275.5610,WO,2,2,LETTUCE,boat_deck,R,2.2862,NR,3.0000
487,12,223,299.6321,-287.6300,WO,4,3,VODKA,marsh,R,1.8680,NR,3.0000
488,12,224,311.7002,-299.6994,WI,4,4,WITCH,florist_shop,UR,1.6077,NR,3.0000
489,12,225,323.7671,-311.7654,WI,4,4,MOON,kitchenette,UR,1.4856,NR,3.0000
490,12,226,335.8353,-323.8338,WI,4,3,FOX,jewelry_shop,R,1.8655,NR,3.0000
491,12,227,347.9030,-335.9015,WO,2,2,RIFLE,boathouse,UR,2.5519,NR,3.0000
492,12,228,359.9711,-347.9696,WO,4,4,VODKA,marsh,UR,1.3491,NR,3.0000
493,12,229,372.0387,-360.0379,WI,2,2,SNAIL,pantry,UR,1.5469,NR,3.0000
494,12,230,384.1058,-372.1038,WO,4,4,NAPKIN,dock,R,1.5433,NR,3.0000
495,12,231,396.1744,-384.1729,WO,4,4,SANDAL,corral,R,1.7391,NR,3.0000
496,12,232,408.2420,-396.2402,WI,2,2,ANCHOR,stable,UR,1.8496,NR,3.0000
497,12,233,420.3102,-408.3085,WO,4,4,SAIL,harbor,R,1.2704,NR,3.0000
498,12,234,432.3782,-420.3774,WI,4,3,SCORPION,squash_court,UR,2.3950,NR,3.0000
499,12,235,444.4452,-432.4436,WO,2,2,MUSTARD,raceway,R,1.9441,NR,3.0000
500,12,236,456.5131,-444.5107,WI,4,4,SCORPION,squash_court,UR,1.6539,NR,3.0000
501,12,237,468.5817,-456.5799,WO,2,2,VELVET,ice_shelf,UR,2.0505,NR,3.0000
502,12,238,480.6501,-468.6492,WI,2,2,CLAM,sauna,UR,1.8390,NR,3.0000
503,12,239,492.7170,-480.7158,WI,2,2,BUCKET,lobby,R,2.1330,NR,3.0000
504,12,240,504.7843,-492.7822,WI,4,4,FOX,jewelry_shop,R,1.4264,NR,3.0000
