index,run,trial,onset,duration,cond,repType,repCount,word,pic,resp,respRT,ISIresp,ISIrespRT
1,1,1,10.0064,1.9960,WO,4,1,CHICKEN,formal_garden,R,1.2783,NR,3.0000
2,1,2,22.0662,-10.0642,WO,4,1,ACCORDIAN,butte,R,1.9283,NR,3.0000
3,1,3,34.1221,-22.1213,WI,4,1,ORNAMENT,pulpit,R,0.8037,NR,3.0000
4,1,4,46.1776,-34.1769,WO,4,1,TRIBE,garbage_dump,R,2.7395,NR,3.0000
5,1,5,58.2328,-46.2314,WO,4,1,VODKA,pavilion,R,1.9921,NR,3.0000
6,1,6,70.2894,-58.2882,WI,4,1,BRAIN,theater,R,1.1815,NR,3.0000
7,1,7,82.3451,-70.3434,WI,4,1,SEAWEED,gymnasium,R,2.1391,NR,3.0000
8,1,8,94.4019,-82.4011,WO,4,1,EYE,creek,R,1.1463,NR,3.0000
9,1,9,106.4573,-94.4554,WO,2,1,SQUIRREL,market,R,1.3271,NR,3.0000
10,1,10,118.5138,-106.5130,WI,4,1,BELL,airplane_cabin,R,1.3313,NR,3.0000
11,1,11,130.5700,-118.5683,WI,4,1,ALLIGATOR,ballroom,R,2.6575,NR,3.0000
12,1,12,142.6263,-130.6239,WI,4,1,STOOL,banquet_hall,R,2.2329,NR,3.0000
13,1,13,154.6838,-142.6819,WO,4,1,BRACELET,canyon,R,1.8356,NR,3.0000
14,1,14,166.7405,-154.7389,WO,4,1,LIME,islet,R,2.4860,NR,3.0000
15,1,15,178.7971,-166.7959,WI,2,1,NECKLACE,music_studio,R,1.0555,NR,3.0000
16,1,16,190.8538,-178.8528,WI,2,1,OYSTER,cloister,R,1.4206,NR,3.0000
17,1,17,202.9093,-190.9084,WO,2,1,CHERRY,observatory,R,2.2328,NR,3.0000
18,1,18,214.9654,-202.9645,WO,4,2,ACCORDIAN,butte,R,1.9987,NR,3.0000
19,1,19,227.0208,-215.0192,WI,2,1,ASPIRIN,clothing_store,R,1.7166,NR,3.0000
20,1,20,239.0769,-227.0752,WO,2,1,SPONGE,hayfield,R,2.2026,NR,3.0000
21,1,21,251.1340,-239.1319,WI,2,1,NAPKIN,bazaar,R,1.7514,NR,3.0000
22,1,22,263.1908,-251.1888,WO,4,2,EYE,creek,R,1.2859,NR,3.0000
23,1,23,275.2482,-263.2464,WI,4,2,BELL,airplane_cabin,R,1.2836,NR,3.0000
24,1,24,287.3047,-275.3035,WO,4,2,TRIBE,garbage_dump,R,0.8957,NR,3.0000
25,1,25,299.3607,-287.3598,WI,2,1,CEREAL,playroom,R,1.6922,NR,3.0000
26,1,26,311.4165,-299.4147,WI,4,2,ORNAMENT,pulpit,R,0.9204,NR,3.0000
27,1,27,323.4731,-311.4714,WO,2,1,WITCH,picnic_area,R,2.3228,NR,3.0000
28,1,28,335.5300,-323.5283,WO,2,1,WALRUS,marsh,R,1.5893,NR,3.0000
29,1,29,347.5865,-335.5847,WO,4,2,BRACELET,canyon,R,1.5988,NR,3.0000
30,1,30,359.6432,-347.6424,WI,4,2,BRAIN,theater,R,2.0117,NR,3.0000
31,1,31,371.6994,-359.6983,WO,4,2,LIME,islet,R,1.1752,NR,3.0000
32,1,32,383.7553,-371.7534,WI,4,1,ARROW,classroom,R,2.0868,NR,3.0000
33,1,33,395.8127,-383.8114,WO,2,1,STOMACH,playground,R,1.5981,NR,3.0000
34,1,34,407.8687,-395.8669,WI,4,2,SEAWEED,gymnasium,R,1.1591,NR,3.0000
35,1,35,419.9253,-407.9240,WO,2,1,SYRUP,lock_chamber,R,1.4905,NR,3.0000
36,1,36,431.9821,-419.9807,WI,2,1,TRAY,auto_factory,R,2.4619,NR,3.0000
37,1,37,444.0385,-432.0355,WI,2,1,SHRIMP,office,R,2.8337,NR,3.0000
38,1,38,456.0966,-444.0948,WI,4,2,STOOL,banquet_hall,R,0.7510,NR,3.0000
39,1,39,468.1534,-456.1520,WO,4,2,CHICKEN,formal_garden,R,0.7733,NR,3.0000
40,1,40,480.2098,-468.2076,WI,4,2,ARROW,classroom,NR,999.0000,R,3.1247
41,1,41,492.2675,-480.2652,WO,4,2,VODKA,pavilion,R,0.7769,NR,3.0000
42,1,42,504.3248,-492.3226,WI,4,2,ALLIGATOR,ballroom,R,1.3294,NR,3.0000
43,2,19,10.0014,2.0003,WO,4,1,WAND,bayou,R,2.3992,NR,3.0000
44,2,20,22.0667,-10.0655,WO,4,1,SARDINE,crevasse,R,1.6048,NR,3.0000
45,2,21,34.1296,-22.1276,WI,2,1,TROPHY,brewery,R,1.4022,NR,3.0000
46,2,22,46.1935,-34.1919,WO,4,1,CUCUMBER,botanical_garden,R,1.3502,NR,3.0000
47,2,23,58.2574,-46.2558,WO,2,1,ROSARY,lido_deck,R,2.2273,NR,3.0000
48,2,24,70.3209,-58.3188,WI,4,1,CAMERA,computer_room,R,0.5992,NR,3.0000
49,2,25,82.3852,-70.3827,WO,4,1,TOAST,cabin,R,1.4956,NR,3.0000
50,2,26,94.4501,-82.4486,WI,4,2,CAMERA,computer_room,R,2.2329,NR,3.0000
51,2,27,106.5132,-94.5122,WI,4,1,CORAL,jewelry_shop,R,2.7888,NR,3.0000
52,2,28,118.5756,-106.5732,WI,2,1,TIGER,natural_history_museum,R,1.8825,NR,4.3258
53,2,29,130.6404,-116.5567,WO,4,1,CAMEL,oil_refinery,NR,999.0000,NR,3.0000
54,2,30,144.7863,-132.7853,WI,2,1,CANNON,museum,R,2.9211,NR,3.0000
55,2,31,156.8492,-144.8469,WO,4,1,FROG,house,R,2.7476,NR,3.0000
56,2,32,168.9141,-156.9122,WO,4,1,COFFEE,canal,R,2.1000,NR,3.0000
57,2,33,180.9783,-168.9766,WI,2,1,SUBMARINE,throne_room,R,2.9729,NR,3.0000
58,2,34,193.0423,-181.0404,WO,4,2,CAMEL,oil_refinery,R,0.9496,NR,3.0000
59,2,35,205.1069,-193.1047,WI,4,1,BUCKET,restaurant_kitchen,R,1.4186,NR,3.0000
60,2,36,217.1713,-205.1692,WO,2,1,FAN,phone_booth,R,1.6580,NR,3.0000
61,2,37,229.2359,-217.2341,WO,4,2,FROG,house,R,1.5920,NR,3.0000
62,2,38,241.2997,-229.2984,WO,2,1,HAWK,manufactured_home,R,1.6123,NR,3.0000
63,2,39,253.3634,-241.3621,WI,4,1,SAXOPHONE,apse,R,1.0505,NR,3.0000
64,2,40,265.4272,-253.4257,WO,2,1,NET,pasture,R,2.1343,NR,3.0000
65,2,41,277.4909,-265.4887,WI,2,1,PIE,television_studio,R,1.3855,NR,3.0000
66,2,42,289.5561,-277.5545,WO,4,2,WAND,bayou,NR,999.0000,NR,3.0000
67,2,43,301.6199,-289.6191,WI,4,1,SCOOTER,reception,R,2.0718,NR,3.0000
68,2,44,313.6829,-301.6819,WO,2,1,OPIUM,oilrig,R,2.6984,NR,3.0000
69,2,45,325.7466,-313.7447,WI,2,1,SHOVEL,kitchen,NR,999.0000,NR,3.0000
70,2,46,337.8106,-325.8084,WO,4,2,SARDINE,crevasse,R,1.3689,NR,3.0000
71,2,47,349.8752,-337.8729,WI,4,2,BUCKET,restaurant_kitchen,R,2.4111,NR,3.0000
72,2,48,361.9398,-349.9390,WO,4,2,TOAST,cabin,R,1.7178,NR,3.0000
73,2,49,374.0028,-362.0006,WI,4,1,MOON,library,R,1.4995,NR,3.0000
74,2,50,386.0674,-374.0656,WI,4,1,MEDAL,kennel,R,1.6920,NR,3.0000
75,2,51,398.1318,-386.1296,WI,4,2,MEDAL,kennel,R,1.6110,NR,3.0000
76,2,52,410.1967,-398.1959,WO,2,1,CARROT,boardwalk,NR,999.0000,NR,3.0000
77,2,53,422.2600,-410.2588,WO,4,2,COFFEE,canal,R,0.9760,NR,3.0000
78,2,54,434.3236,-422.3219,WI,4,2,MOON,library,R,0.9345,NR,3.0000
79,2,55,446.3880,-434.3868,WI,2,1,CANDY,bus_interior,R,1.1476,NR,3.0000
80,2,56,458.4521,-446.4510,WO,4,2,CUCUMBER,botanical_garden,R,1.4219,NR,3.0000
81,2,57,470.5160,-458.5142,WO,2,1,DOLL,mausoleum,R,0.6862,NR,3.0000
82,2,58,482.5804,-470.5783,WI,4,2,CORAL,jewelry_shop,R,1.1021,NR,3.0000
83,2,59,494.6453,-482.6445,WI,4,2,SAXOPHONE,apse,R,1.1483,NR,3.0000
84,2,60,506.7092,-494.7066,WI,4,2,SCOOTER,reception,R,1.3885,NR,3.0000
85,3,37,10.0020,2.0004,WO,2,1,STAPLER,labyrinth,R,2.3212,NR,3.0000
86,3,38,22.0638,-10.0616,WI,2,1,OMELET,train_station,R,1.4732,NR,3.0000
87,3,39,34.1232,-22.1212,WI,4,1,ICICLE,diner,R,1.4892,NR,3.0000
88,3,40,46.1831,-34.1810,WO,4,1,QUILT,campsite,R,1.6259,NR,3.0000
89,3,41,58.2424,-46.2408,WO,4,1,VIOLIN,hot_spring,R,1.6282,NR,3.0000
90,3,42,70.3011,-58.2994,WO,2,1,LETTUCE,mosque,R,2.8574,NR,3.0000
91,3,43,225.6334,-213.6308,WI,2,1,LION,kindergarden_classroom,R,2.0845,NR,3.0000
92,3,44,237.6933,-225.6906,WO,4,2,VIOLIN,hot_spring,R,1.1211,NR,3.0000
93,3,45,249.7539,-237.7528,WO,2,1,DRUM,forest_path,R,0.5529,NR,3.0000
94,3,46,261.8116,-249.8106,WO,4,1,TORNADO,raceway,R,1.0539,NR,3.0000
95,3,47,273.8697,-261.8679,WI,2,1,MILK,pantry,R,1.5061,NR,3.0000
96,3,48,285.9289,-273.9278,WI,4,1,SALAD,dorm_room,R,1.5528,NR,3.0000
97,3,49,297.9871,-285.9861,WI,4,1,DOUGHNUT,catacomb,R,1.5179,NR,3.0000
98,3,50,310.0457,-298.0441,WO,4,1,GLOVE,forest_needleleaf,R,1.0836,NR,3.0000
99,3,51,322.1043,-310.1027,WI,4,1,MUSSEL,drugstore,UR,1.9863,NR,3.0000
100,3,52,334.1635,-322.1625,WO,4,1,BANANA,outhouse,R,1.8788,NR,3.0000
101,3,53,346.2228,-334.2207,WO,2,1,QUAIL,lift_bridge,R,1.9634,NR,3.0000
102,3,54,358.2823,-346.2811,WI,4,1,SHEEP,optician,R,2.0650,NR,3.0000
103,3,55,370.3413,-358.3402,WO,4,2,QUILT,campsite,R,2.8388,NR,3.0000
104,3,56,382.3996,-370.3976,WI,2,1,MUFFIN,bedroom,R,1.5884,NR,3.0000
105,3,57,394.4590,-382.4575,WO,4,1,BABY,mountain_snowy,R,1.8819,NR,3.0000
106,3,58,406.5182,-394.5173,WI,4,1,HAM,ice_cream_parlor,R,2.0723,NR,3.0000
107,3,59,418.5765,-406.5744,WO,4,2,BANANA,outhouse,R,0.7323,NR,3.0000
108,3,60,430.6364,-418.6351,WI,4,1,UMBRELLA,cathedral,NR,999.0000,NR,3.0000
109,3,61,442.6948,-430.6927,WO,4,1,SLIPPER,igloo,R,1.1119,NR,3.0000
110,3,62,454.7543,-442.7523,WI,2,1,MOTH,stable,R,1.1328,NR,3.0000
111,3,63,466.8138,-454.8117,WI,4,2,SALAD,dorm_room,R,1.0904,NR,3.0000
112,3,64,478.8735,-466.8721,WO,2,1,ACROBAT,park,R,1.6571,NR,3.0000
113,3,65,490.9329,-478.9306,WO,4,2,SLIPPER,igloo,R,1.6285,NR,3.0000
114,3,66,502.9924,-490.9906,WO,2,1,HOOK,rice_paddy,R,2.7381,NR,3.0000
115,3,67,515.0514,-503.0491,WI,2,1,RACQUET,garage,R,1.8252,NR,3.0000
116,3,68,527.1118,-515.1104,WI,4,2,DOUGHNUT,catacomb,R,2.1823,NR,3.0000
117,3,69,539.1705,-527.1682,WI,4,2,UMBRELLA,cathedral,NR,999.0000,NR,3.0000
118,3,70,551.2307,-539.2281,WO,4,2,GLOVE,forest_needleleaf,NR,999.0000,R,3.2522
119,3,71,563.2905,-551.2882,WI,4,2,ICICLE,diner,R,1.4879,NR,3.0000
120,3,72,575.3502,-563.3487,WO,2,1,RING,pond,R,2.3753,NR,3.0000
121,3,73,587.4100,-575.4082,WI,4,2,HAM,ice_cream_parlor,R,0.8324,NR,3.0000
122,3,74,599.4694,-587.4684,WO,4,2,TORNADO,raceway,R,0.9085,NR,3.0000
123,3,75,611.5286,-599.5263,WO,4,2,BABY,mountain_snowy,R,0.9617,NR,3.0000
124,3,76,623.5885,-611.5864,WI,2,1,WHIP,ice_skating_rink,R,1.6641,NR,3.0000
125,3,77,635.6482,-623.6469,WI,4,2,SHEEP,optician,R,1.0291,NR,3.0000
126,3,78,647.7074,-635.7055,WI,4,2,MUSSEL,drugstore,NR,999.0000,NR,3.0000
127,4,55,10.0035,1.9981,WI,2,1,GARBAGE,assembly_line,R,2.1639,NR,3.0000
128,4,56,22.0680,-10.0666,WI,4,1,QUARTER,athletic_field,R,1.0570,NR,3.0000
129,4,57,34.1300,-22.1287,WI,2,1,MOUSE,tennis_court,R,2.3188,NR,3.0000
130,4,58,46.1919,-34.1902,WO,4,1,YACHT,construction_site,R,1.8120,NR,3.0000
131,4,59,58.2550,-46.2536,WO,4,1,BAYONET,general_store,R,1.0894,NR,3.0000
132,4,60,70.3171,-58.3156,WI,4,1,BOWL,basement,R,1.1734,NR,3.0000
133,4,61,82.3798,-70.3789,WI,4,1,APPLE,subway_interior,R,1.7242,NR,3.0000
134,4,62,94.4413,-82.4393,WI,4,1,FLASK,sauna,R,1.7071,NR,3.0000
135,4,63,106.5042,-94.5023,WO,2,1,CRAB,field_wild,R,1.2812,NR,3.0000
136,4,64,118.5671,-106.5656,WO,4,1,HELMET,office_building,R,2.0146,NR,3.0000
137,4,65,130.6294,-118.6275,WO,4,1,VINE,river,R,1.6422,NR,3.0000
138,4,66,142.6925,-130.6907,WI,4,1,RABBIT,stage,R,2.7366,NR,3.0000
139,4,67,154.7555,-142.7547,WI,2,1,LAMP,nursery,R,1.8447,NR,3.0000
140,4,68,166.8169,-154.8159,WO,4,2,VINE,river,R,0.7779,NR,3.0000
141,4,69,178.8794,-166.8771,WI,4,1,PAN,limousine_interior,R,1.6330,NR,3.0000
142,4,70,190.9426,-178.9419,WI,4,1,SCREWDRIVER,courtroom,NR,999.0000,R,3.4406
143,4,71,203.0048,-191.0034,WO,4,2,BAYONET,general_store,R,2.0752,NR,3.0000
144,4,72,215.0669,-203.0656,WO,4,2,YACHT,construction_site,R,1.2570,NR,3.0000
145,4,73,227.1298,-215.1285,WI,4,2,SCREWDRIVER,courtroom,NR,999.0000,R,3.5763
146,4,74,239.1919,-227.1897,WI,4,2,QUARTER,athletic_field,R,2.5071,NR,3.0000
147,4,75,251.2562,-239.2554,WO,2,1,ENVELOPE,patio,R,2.4886,NR,3.0000
148,4,76,263.3182,-251.3168,WO,2,1,TYPEWRITER,fishpond,R,2.9103,NR,3.0000
149,4,77,275.3816,-263.3807,WI,4,2,RABBIT,stage,R,1.7940,NR,3.0000
150,4,78,287.4437,-275.4428,WI,4,2,BOWL,basement,R,1.3684,NR,3.0000
151,4,79,299.5057,-287.5038,WI,4,2,FLASK,sauna,R,1.5377,NR,3.0000
152,4,80,311.5684,-299.5663,WO,2,1,NEEDLE,kasbah,R,2.2774,NR,3.0000
153,4,81,323.6322,-311.6301,WO,4,1,BANDIT,mountain,R,1.7925,NR,3.0000
154,4,82,335.6952,-323.6941,WI,4,2,APPLE,subway_interior,R,1.9771,NR,3.0000
155,4,83,347.7578,-335.7559,WO,4,1,CHOCOLATE,dock,R,2.3258,NR,3.0000
156,4,84,359.8205,-347.8197,WI,2,1,WALNUT,bistro,R,1.9002,NR,3.0000
157,4,85,371.8822,-359.8807,WO,2,1,ANCHOR,ocean,R,2.4297,NR,7.9077
158,4,86,383.9447,-371.9416,WI,2,1,MAGICIAN,fastfood_restaurant,R,2.6048,R,4.7422
159,4,87,396.0081,-384.0061,WO,4,1,RIFLE,arch,R,2.4894,NR,3.0000
160,4,88,408.0711,-396.0698,WO,4,2,CHOCOLATE,dock,R,1.2184,NR,3.0000
161,4,89,420.1335,-408.1323,WO,4,2,BANDIT,mountain,R,1.0560,NR,3.0000
162,4,90,432.1955,-420.1944,WI,2,1,PASSPORT,control_room,R,1.2219,NR,3.0000
163,4,91,444.2583,-432.2562,WI,2,1,PENNY,auditorium,R,0.9955,NR,3.0000
164,4,92,456.3215,-444.3199,WO,4,2,HELMET,office_building,R,0.8958,NR,3.0000
165,4,93,468.3844,-456.3830,WI,4,2,PAN,limousine_interior,R,1.4206,NR,3.0000
166,4,94,480.4467,-468.4455,WO,2,1,BEAVER,barn,R,1.0277,NR,3.0000
167,4,95,492.5090,-480.5082,WO,2,1,TROLLEY,bamboo_forest,R,1.6069,NR,3.0000
168,4,96,504.5716,-492.5699,WO,4,2,RIFLE,arch,R,0.7896,NR,3.0000
169,5,73,10.0036,1.9979,WO,4,1,PUMPKIN,nuclear_power_plant,R,1.3039,NR,3.0000
170,5,74,22.0645,-10.0630,WI,4,1,SPATULA,synagogue,R,1.5655,NR,3.0000
171,5,75,34.1244,-22.1220,WI,4,1,DOVE,laundromat,R,1.5312,NR,3.0000
172,5,76,46.1843,-34.1835,WO,2,1,TELEGRAPH,aqueduct,R,2.2329,NR,3.0000
173,5,77,58.2434,-46.2419,WO,2,1,CLARINET,crosswalk,R,1.4449,NR,3.0000
174,5,78,70.3023,-58.3003,WI,2,1,BENCH,bookstore,R,1.7569,NR,3.0000
175,5,79,82.3617,-70.3603,WO,2,1,OATMEAL,basketball_court,R,0.9451,NR,3.0000
176,5,80,94.4222,-82.4208,WI,4,1,BROWNIE,home_office,R,1.0615,NR,3.0000
177,5,81,106.4813,-94.4797,WO,2,1,GLOBE,cottage_garden,R,1.1479,NR,3.0000
178,5,82,118.5411,-106.5397,WI,4,2,BROWNIE,home_office,R,1.0796,NR,3.0000
179,5,83,130.6002,-118.5970,WI,2,1,CAGE,art_studio,NR,999.0000,R,3.6009
180,5,84,142.6609,-130.6594,WO,2,1,SOAP,pagoda,R,0.6199,NR,3.0000
181,5,85,154.7202,-142.7178,WI,4,1,CLAM,parking_garage,NR,999.0000,NR,3.0000
182,5,86,166.7803,-154.7795,WI,2,1,TEETH,casino,R,1.7112,NR,3.0000
183,5,87,178.8396,-166.8385,WI,2,1,TOWEL,badminton_court,R,1.5712,NR,3.0000
184,5,88,190.8986,-178.8976,WO,4,1,BALLOON,herb_garden,R,1.2497,NR,3.0000
185,5,89,202.9574,-190.9566,WO,4,1,SCISSORS,corn_field,R,2.2389,NR,3.0000
186,5,90,215.0166,-203.0154,WO,2,1,PEARL,dam,R,2.3714,NR,3.0000
187,5,91,227.0755,-215.0740,WI,4,2,DOVE,laundromat,NR,999.0000,NR,3.0000
188,5,92,239.1351,-227.1330,WI,4,1,MAP,living_room,R,1.3848,NR,3.0000
189,5,93,251.1952,-239.1940,WO,4,2,BALLOON,herb_garden,R,0.6129,NR,3.0000
190,5,94,263.2543,-251.2525,WI,4,1,HOSE,bowling_alley,R,1.0276,NR,3.0000
191,5,95,275.3145,-263.3122,WO,4,2,SCISSORS,corn_field,R,2.6804,NR,3.0000
192,5,96,287.3746,-275.3725,WI,4,2,HOSE,bowling_alley,R,1.1334,NR,3.0000
193,5,97,299.4351,-287.4342,WO,4,1,BARREL,palace,NR,999.0000,NR,3.0000
194,5,98,311.4937,-299.4912,WO,4,1,ZIPPER,cliff,NR,999.0000,R,3.6826
195,5,99,323.5541,-311.5523,WI,4,2,SPATULA,synagogue,R,1.4703,NR,3.0000
196,5,100,335.6143,-323.6127,WI,4,2,MAP,living_room,R,0.9075,NR,3.0000
197,5,101,347.6736,-335.6717,WI,4,1,HONEY,restaurant,R,1.4973,NR,3.0000
198,5,102,359.7334,-347.7321,WO,2,1,MUSTARD,greenhouse,NR,999.0000,R,4.1043
199,5,103,371.7927,-359.7912,WI,2,1,CHEESE,squash_court,R,0.4917,NR,3.0000
200,5,104,383.8522,-371.8506,WI,4,2,CLAM,parking_garage,R,1.0497,NR,3.0000
201,5,105,395.9123,-383.9113,WO,4,1,RASH,railroad_track,R,0.6308,NR,3.0000
202,5,106,407.9712,-395.9698,WO,4,2,PUMPKIN,nuclear_power_plant,R,0.6748,NR,3.0000
203,5,107,420.0315,-408.0300,WI,4,2,HONEY,restaurant,R,0.9849,NR,3.0000
204,5,108,432.0912,-420.0894,WO,4,2,ZIPPER,cliff,R,1.3500,NR,3.0000
205,5,109,444.1508,-432.1492,WO,4,2,BARREL,palace,R,1.2608,NR,3.0000
206,5,110,456.2110,-444.2094,WI,2,1,LANTERN,galley,R,2.3123,NR,3.0000
207,5,111,468.2702,-456.2687,WO,4,1,RICE,excavation,R,1.1577,NR,3.2651
208,5,112,480.3298,-468.3288,WO,4,2,RASH,railroad_track,R,0.7806,NR,3.0000
209,5,113,492.3887,-480.3876,WI,2,1,SOOT,ball_pit,R,1.4651,NR,4.6435
210,5,114,504.4485,-492.4476,WO,4,2,RICE,excavation,R,0.6951,NR,11.2106
211,6,91,10.0046,1.9965,WI,2,1,PANTS,operating_room,R,2.3380,NR,3.5095
212,6,92,22.0695,-10.0684,WI,4,1,PLUG,attic,R,1.8303,NR,3.0000
213,6,93,34.1323,-22.1312,WO,4,1,VELVET,fire_escape,R,0.7024,NR,3.0000
214,6,94,46.1954,-34.1945,WI,4,1,ARMOR,movie_theater,R,2.3416,NR,3.0000
215,6,95,58.2583,-46.2566,WO,4,2,VELVET,fire_escape,NR,999.0000,NR,3.0000
216,6,96,70.3221,-58.3202,WI,4,1,ROPE,boxing_ring,R,2.4823,NR,3.0000
217,6,97,82.3856,-70.3846,WO,2,1,BOOT,electrical_substation,R,2.5206,NR,3.0000
218,6,98,94.4481,-82.4450,WI,2,1,PYTHON,archive,R,1.1255,NR,3.0000
219,6,99,106.5126,-94.5119,WO,2,1,SOUP,fire_station,R,0.5616,NR,3.0000
220,6,100,118.5751,-106.5740,WO,4,1,SADDLE,gas_station,R,2.0876,NR,3.0000
221,6,101,130.6379,-118.6365,WI,4,1,JACKET,amusement_arcade,R,0.5822,NR,3.0000
222,6,102,142.7011,-130.6980,WI,4,1,SNOW,parlor,R,1.0296,NR,3.0000
223,6,103,154.7663,-142.7650,WI,2,1,OTTER,jacuzzi,R,2.7996,NR,3.0000
224,6,104,166.8293,-154.8279,WO,4,1,GOAT,chalet,R,2.5412,NR,3.0000
225,6,105,178.8919,-166.8891,WO,2,1,DESK,field_cultivated,NR,999.0000,NR,3.0000
226,6,106,190.9559,-178.9538,WO,4,2,SADDLE,gas_station,R,1.4821,NR,3.0000
227,6,107,203.0190,-191.0164,WI,4,2,PLUG,attic,R,1.0268,NR,3.0000
228,6,108,215.0833,-203.0817,WO,2,1,SHOWER,ice_floe,NR,999.0000,R,3.5861
229,6,109,227.1460,-215.1432,WI,4,1,DRUG,art_gallery,R,1.0691,NR,3.0000
230,6,110,239.2096,-227.2088,WI,4,2,SNOW,parlor,R,1.1229,NR,3.0000
231,6,111,251.2714,-239.2702,WO,4,1,KNIFE,orchard,R,1.8871,NR,3.0000
232,6,112,263.3338,-251.3318,WO,4,2,KNIFE,orchard,R,0.6208,NR,3.0000
233,6,113,275.3972,-263.3953,WI,4,2,DRUG,art_gallery,R,1.4809,NR,3.0000
234,6,114,287.4602,-275.4581,WO,4,1,HATCHET,basilica,R,0.9764,NR,3.0000
235,6,115,299.5234,-287.5213,WI,4,2,ARMOR,movie_theater,R,1.4213,NR,3.0000
236,6,116,311.5869,-299.5850,WO,4,1,KILT,ice_shelf,R,2.0275,NR,3.0000
237,6,117,323.6500,-311.6490,WI,4,1,BATON,hospital_room,R,1.7342,NR,3.0000
238,6,118,335.7126,-323.7107,WI,4,2,JACKET,amusement_arcade,R,1.6511,NR,3.0000
239,6,119,347.7756,-335.7744,WO,4,2,KILT,ice_shelf,NR,999.0000,R,3.2811
240,6,120,359.8381,-347.8373,WO,4,2,HATCHET,basilica,R,1.7800,NR,3.0000
241,6,121,371.9010,-359.8984,WI,2,1,TABLE,baggage_claim,R,2.5522,NR,3.0000
242,6,122,383.9647,-371.9632,WO,4,1,KALE,desert,R,2.5132,NR,3.0000
243,6,123,396.0279,-384.0258,WI,2,1,GEESE,dining_room,NR,999.0000,R,3.0871
244,6,124,408.0909,-396.0883,WO,2,1,DAMSEL,amphitheater,R,2.5020,NR,3.0000
245,6,125,420.1547,-408.1518,WO,4,2,KALE,desert,R,1.7999,NR,3.0000
246,6,126,432.2189,-420.2181,WI,2,1,BROOM,bathroom,R,1.4616,NR,3.0000
247,6,127,444.2808,-432.2796,WI,4,2,BATON,hospital_room,R,1.3669,NR,3.0000
248,6,128,456.3437,-444.3420,WO,4,2,GOAT,chalet,R,0.6515,NR,3.0000
249,6,129,468.4069,-456.4040,WO,2,1,POSTER,gazebo,R,2.6556,NR,3.0000
250,6,130,480.4710,-468.4702,WO,2,1,HIGHWAY,badlands,NR,999.0000,R,3.7055
251,6,131,492.5334,-480.5322,WI,2,1,TOBACCO,jail_cell,R,1.3403,NR,3.0000
252,6,132,504.5961,-492.5947,WI,4,2,ROPE,boxing_ring,R,0.8791,NR,3.0000
253,7,109,10.0021,1.9990,WO,4,3,BRACELET,canyon,R,1.2251,NR,3.0000
254,7,110,22.0671,-10.0656,WI,2,2,OYSTER,cloister,NR,999.0000,NR,3.0000
255,7,111,34.1303,-22.1288,WO,2,2,SPONGE,hayfield,R,0.9570,UR,11.7388
256,7,112,46.1943,-34.1923,WO,4,3,LIME,islet,R,2.6379,NR,3.0000
257,7,113,58.2574,-46.2544,WI,4,3,BELL,airplane_cabin,R,1.9546,NR,3.0000
258,7,114,70.3223,-58.3215,WO,4,3,CHICKEN,formal_garden,R,1.3559,NR,3.0000
259,7,115,82.3851,-70.3834,WI,4,3,ORNAMENT,pulpit,R,1.5488,NR,3.0000
260,7,116,94.4482,-82.4467,WI,2,2,NAPKIN,bazaar,R,1.2007,NR,3.0000
261,7,117,106.5117,-94.5099,WO,4,4,BRACELET,canyon,R,1.2116,NR,3.0000
262,7,118,118.5752,-106.5736,WI,4,3,ARROW,classroom,R,1.6091,NR,3.0000
263,7,119,130.6386,-118.6377,WO,2,2,CHERRY,observatory,R,1.2955,NR,3.0000
264,7,120,142.7017,-130.7002,WO,4,4,CHICKEN,formal_garden,R,1.9840,NR,3.0000
265,7,121,154.7649,-142.7642,WO,4,3,VODKA,pavilion,R,1.6065,NR,3.0000
266,7,122,166.8280,-154.8268,WI,4,4,ARROW,classroom,R,0.7561,NR,3.0000
267,7,123,178.8908,-166.8891,WO,4,3,ACCORDIAN,butte,R,1.3670,NR,3.0000
268,7,124,190.9544,-178.9515,WI,4,3,STOOL,banquet_hall,R,0.9059,NR,3.0000
269,7,125,203.0190,-191.0176,WI,4,4,ORNAMENT,pulpit,R,0.8560,NR,3.0000
270,7,126,215.0824,-203.0816,WO,4,3,TRIBE,garbage_dump,R,0.9563,NR,3.0000
271,7,127,227.1455,-215.1446,WI,4,3,BRAIN,theater,R,2.0895,NR,3.0000
272,7,128,239.2080,-227.2070,WO,2,2,STOMACH,playground,NR,999.0000,R,3.2427
273,7,129,251.2707,-239.2696,WI,2,2,NECKLACE,music_studio,R,1.0850,NR,3.0000
274,7,130,263.3342,-251.3323,WI,2,2,ASPIRIN,clothing_store,R,0.8581,NR,3.0000
275,7,131,275.3978,-263.3970,WO,2,2,WALRUS,marsh,R,1.0236,NR,3.0000
276,7,132,287.4609,-275.4597,WI,4,3,SEAWEED,gymnasium,R,1.5560,NR,3.0000
277,7,133,299.5241,-287.5228,WO,4,3,EYE,creek,R,2.4258,NR,3.0000
278,7,134,311.5863,-299.5855,WO,2,2,SQUIRREL,market,R,0.7590,NR,3.0000
279,7,135,323.6486,-311.6457,WI,2,2,TRAY,auto_factory,R,1.1259,NR,3.0000
280,7,136,335.7132,-323.7109,WO,4,4,TRIBE,garbage_dump,R,1.3057,NR,3.0000
281,7,137,347.7777,-335.7763,WI,4,4,BELL,airplane_cabin,R,2.1506,NR,3.0000
282,7,138,359.8414,-347.8404,WI,4,4,SEAWEED,gymnasium,R,0.6688,NR,3.0000
283,7,139,371.9049,-359.9035,WI,4,3,ALLIGATOR,ballroom,R,1.5704,NR,3.0000
284,7,140,383.9685,-371.9668,WO,4,4,VODKA,pavilion,R,0.7176,NR,3.0000
285,7,141,396.0323,-384.0303,WI,2,2,SHRIMP,office,R,1.3963,NR,3.0000
286,7,142,408.0963,-396.0951,WO,2,2,WITCH,picnic_area,R,2.4241,NR,3.0000
287,7,143,420.1588,-408.1573,WO,4,4,LIME,islet,R,0.8223,NR,3.0000
288,7,144,432.2215,-420.2194,WI,2,2,CEREAL,playroom,R,1.0036,NR,3.0000
289,7,145,444.2854,-432.2842,WO,2,2,SYRUP,lock_chamber,R,0.8722,NR,3.0000
290,7,146,456.3485,-444.3475,WI,4,4,ALLIGATOR,ballroom,R,1.6535,NR,3.0000
291,7,147,468.4121,-456.4107,WI,4,4,BRAIN,theater,R,0.7847,NR,3.0000
292,7,148,480.4755,-468.4739,WO,4,4,EYE,creek,R,1.0218,NR,3.0000
293,7,149,492.5396,-480.5376,WI,4,4,STOOL,banquet_hall,NR,999.0000,NR,3.0000
294,7,150,504.6036,-492.6029,WO,4,4,ACCORDIAN,butte,R,1.3586,NR,3.0000
295,8,127,10.0021,1.9987,WI,2,2,SUBMARINE,throne_room,NR,999.0000,R,3.2687
296,8,128,22.0634,-10.0621,WO,2,2,ROSARY,lido_deck,R,0.9671,NR,3.0000
297,8,129,34.1226,-22.1204,WI,4,3,MOON,library,R,0.8037,NR,3.0000
298,8,130,46.1822,-34.1799,WI,4,3,BUCKET,restaurant_kitchen,R,0.8741,NR,3.0000
299,8,131,58.2422,-46.2414,WO,2,2,CARROT,boardwalk,R,2.0628,NR,3.0000
300,8,132,70.3003,-58.2987,WI,2,2,CANDY,bus_interior,R,1.6195,NR,3.0000
301,8,133,82.3598,-70.3575,WI,4,3,SAXOPHONE,apse,R,0.5156,NR,3.0000
302,8,134,94.4194,-82.4180,WI,2,2,PIE,television_studio,R,1.6464,NR,3.0000
303,8,135,106.4781,-94.4769,WO,4,3,FROG,house,R,0.8536,NR,3.0000
304,8,136,118.5366,-106.5346,WI,4,3,MEDAL,kennel,R,1.6587,NR,3.0000
305,8,137,130.5958,-118.5939,WO,2,2,NET,pasture,NR,999.0000,NR,3.0000
306,8,138,142.6557,-130.6546,WI,4,3,SCOOTER,reception,R,1.3668,NR,3.0000
307,8,139,154.7142,-142.7115,WO,2,2,DOLL,mausoleum,R,1.2537,NR,3.0000
308,8,140,166.7741,-154.7727,WI,4,3,CORAL,jewelry_shop,R,1.4041,NR,3.0000
309,8,141,178.8335,-166.8324,WO,2,2,OPIUM,oilrig,NR,999.0000,R,3.0492
310,8,142,190.8920,-178.8904,WO,4,3,CAMEL,oil_refinery,R,1.5308,NR,3.0000
311,8,143,202.9515,-190.9495,WI,4,4,SCOOTER,reception,R,0.5845,NR,3.0000
312,8,144,215.0110,-203.0088,WO,4,3,COFFEE,canal,R,0.5821,R,3.0420
313,8,145,227.0707,-215.0697,WI,4,4,MOON,library,R,1.1797,NR,3.0000
314,8,146,239.1296,-227.1274,WO,2,2,HAWK,manufactured_home,R,1.4489,NR,3.0000
315,8,147,251.1898,-239.1874,WO,4,3,WAND,bayou,R,1.0138,NR,3.0000
316,8,148,263.2500,-251.2491,WI,4,4,SAXOPHONE,apse,R,0.6926,NR,3.0000
317,8,149,275.3083,-263.3061,WI,4,3,CAMERA,computer_room,R,1.0405,NR,3.0000
318,8,150,287.3679,-275.3660,WI,2,2,CANNON,museum,R,1.3356,NR,3.0000
319,8,151,299.4277,-287.4267,WO,4,4,WAND,bayou,R,0.3417,NR,3.0000
320,8,152,311.4862,-299.4844,WI,2,2,TROPHY,brewery,R,0.9117,NR,3.0000
321,8,153,323.5459,-311.5445,WO,4,3,SARDINE,crevasse,R,0.7014,NR,3.0000
322,8,154,335.6049,-323.6027,WO,4,4,COFFEE,canal,R,0.5075,NR,3.0000
323,8,155,347.6643,-335.6627,WO,4,3,CUCUMBER,botanical_garden,R,0.5841,NR,3.0000
324,8,156,359.7239,-347.7231,WI,4,4,CORAL,jewelry_shop,R,0.5098,NR,3.0000
325,8,157,371.7829,-359.7821,WO,4,3,TOAST,cabin,R,0.7797,NR,3.0000
326,8,158,383.8424,-371.8413,WI,4,4,CAMERA,computer_room,R,1.1534,NR,3.0000
327,8,159,395.9016,-383.8997,WO,4,4,TOAST,cabin,R,1.0373,NR,3.0000
328,8,160,407.9615,-395.9606,WI,4,4,BUCKET,restaurant_kitchen,R,0.6631,NR,3.0000
329,8,161,420.0210,-408.0186,WO,2,2,FAN,phone_booth,R,0.7181,NR,3.0000
330,8,162,432.0815,-420.0799,WI,2,2,TIGER,natural_history_museum,R,1.2206,NR,3.0000
331,8,163,444.1413,-432.1402,WO,4,4,SARDINE,crevasse,R,0.5794,NR,3.0000
332,8,164,456.2003,-444.1991,WO,4,4,FROG,house,R,0.7287,NR,3.0000
333,8,165,468.2594,-456.2569,WO,4,4,CAMEL,oil_refinery,R,2.3448,NR,3.0000
334,8,166,480.3202,-468.3191,WI,4,4,MEDAL,kennel,R,0.6711,NR,3.0000
335,8,167,492.3791,-480.3772,WI,2,2,SHOVEL,kitchen,UR,0.7444,NR,3.0000
336,8,168,504.4395,-492.4365,WO,4,4,CUCUMBER,botanical_garden,R,1.6664,NR,3.0000
337,9,145,10.0026,1.9989,WO,4,3,QUILT,campsite,R,0.9935,NR,3.0000
338,9,146,22.0639,-10.0625,WI,4,3,SHEEP,optician,R,0.6157,NR,3.0000
339,9,147,34.1236,-22.1222,WO,2,2,LETTUCE,mosque,R,0.4693,NR,3.0000
340,9,148,46.1831,-34.1820,WO,4,3,GLOVE,forest_needleleaf,R,0.6183,NR,3.0000
341,9,149,58.2419,-46.2397,WI,4,3,ICICLE,diner,R,0.7834,NR,3.0000
342,9,150,70.3023,-58.3009,WO,4,4,QUILT,campsite,R,1.1259,NR,3.0000
343,9,151,82.3616,-70.3603,WO,2,2,RING,pond,R,1.6345,NR,3.0000
344,9,152,94.4211,-82.4197,WI,4,3,DOUGHNUT,catacomb,R,2.2951,NR,3.0000
345,9,153,106.4805,-94.4790,WO,4,4,GLOVE,forest_needleleaf,R,2.9571,NR,3.0000
346,9,154,118.5400,-106.5379,WI,4,4,ICICLE,diner,R,1.6985,NR,3.0000
347,9,155,130.6004,-118.5995,WO,4,3,BANANA,outhouse,NR,999.0000,R,3.1801
348,9,156,142.6589,-130.6580,WI,2,2,OMELET,train_station,R,0.9491,NR,3.0000
349,9,157,154.7182,-142.7169,WO,2,2,HOOK,rice_paddy,NR,999.0000,NR,3.0000
350,9,158,166.7776,-154.7754,WI,2,2,LION,kindergarden_classroom,R,1.9199,NR,3.0000
351,9,159,178.8375,-166.8349,WO,4,3,SLIPPER,igloo,R,0.8626,NR,3.0000
352,9,160,190.8979,-178.8959,WI,4,3,HAM,ice_cream_parlor,R,0.4435,NR,3.0000
353,9,161,202.9580,-190.9556,WO,4,3,TORNADO,raceway,R,0.5294,NR,3.0000
354,9,162,215.0187,-203.0170,WO,2,2,STAPLER,labyrinth,R,1.0356,NR,3.0000
355,9,163,227.0782,-215.0770,WI,4,3,MUSSEL,drugstore,UR,2.7030,NR,3.0000
356,9,164,239.1373,-227.1362,WO,4,3,VIOLIN,hot_spring,R,2.4454,NR,3.0000
357,9,165,251.1971,-239.1957,WI,4,3,UMBRELLA,cathedral,R,0.8767,NR,3.0000
358,9,166,263.2565,-251.2557,WO,2,2,QUAIL,lift_bridge,R,0.7612,NR,3.0000
359,9,167,275.3158,-263.3150,WO,4,3,BABY,mountain_snowy,R,2.1830,NR,3.0000
360,9,168,287.3746,-275.3729,WI,4,4,MUSSEL,drugstore,UR,0.9644,NR,3.0000
361,9,169,299.4343,-287.4324,WO,4,4,SLIPPER,igloo,R,1.1955,NR,3.0000
362,9,170,311.4948,-299.4931,WO,4,4,VIOLIN,hot_spring,R,1.3529,NR,3.0000
363,9,171,323.5557,-311.5533,WI,4,4,HAM,ice_cream_parlor,R,1.1903,NR,3.0000
364,9,172,335.6168,-323.6156,WO,4,4,TORNADO,raceway,R,0.5162,NR,3.0000
365,9,173,347.6760,-335.6742,WI,4,4,SHEEP,optician,R,1.4386,NR,3.0000
366,9,174,359.7358,-347.7339,WI,4,3,SALAD,dorm_room,R,2.7310,NR,3.0000
367,9,175,371.7964,-359.7946,WO,4,4,BANANA,outhouse,R,1.8131,NR,3.0000
368,9,176,383.8562,-371.8554,WI,2,2,MILK,pantry,NR,999.0000,R,3.2224
369,9,177,395.9155,-383.9137,WI,2,2,MUFFIN,bedroom,NR,999.0000,R,3.2004
370,9,178,407.9755,-395.9743,WO,2,2,ACROBAT,park,R,2.1895,NR,3.0000
371,9,179,420.0347,-408.0335,WI,2,2,RACQUET,garage,R,1.2119,NR,3.0000
372,9,180,432.0946,-420.0926,WI,4,4,DOUGHNUT,catacomb,NR,999.0000,R,3.0744
373,9,181,444.1548,-432.1537,WI,2,2,MOTH,stable,R,1.6574,NR,3.0000
374,9,182,456.2144,-444.2114,WO,4,4,BABY,mountain_snowy,R,2.6581,NR,3.0000
375,9,183,468.2756,-456.2739,WI,4,4,SALAD,dorm_room,R,2.2066,NR,3.0000
376,9,184,480.3357,-468.3338,WI,2,2,WHIP,ice_skating_rink,R,2.8748,NR,3.0000
377,9,185,492.3965,-480.3956,WI,4,4,UMBRELLA,cathedral,NR,999.0000,NR,3.0000
378,9,186,504.4558,-492.4539,WO,2,2,DRUM,forest_path,R,1.8039,NR,3.0000
379,10,163,10.0028,1.9994,WO,2,2,TYPEWRITER,fishpond,R,0.6179,NR,3.0000
380,10,164,22.0748,-10.0732,WI,4,3,FLASK,sauna,NR,999.0000,NR,3.0000
381,10,165,34.1424,-22.1416,WO,4,3,BAYONET,general_store,NR,999.0000,NR,3.0000
382,10,166,46.2095,-34.2077,WO,2,2,ENVELOPE,patio,R,2.4966,NR,3.0000
383,10,167,58.2778,-46.2769,WI,4,3,APPLE,subway_interior,R,0.7649,NR,3.0000
384,10,168,70.3454,-58.3440,WO,2,2,NEEDLE,kasbah,NR,999.0000,NR,3.0000
385,10,169,82.4127,-70.4115,WI,4,4,FLASK,sauna,R,1.6394,NR,3.0000
386,10,170,94.4807,-82.4786,WI,4,3,QUARTER,athletic_field,R,1.0057,NR,3.0000
387,10,171,106.5485,-94.5475,WO,4,3,CHOCOLATE,dock,R,1.8026,NR,3.0000
388,10,172,118.6152,-106.6136,WI,2,2,GARBAGE,assembly_line,NR,999.0000,NR,3.0000
389,10,173,130.6823,-118.6802,WO,4,4,BAYONET,general_store,R,1.3712,NR,3.0000
390,10,174,142.7496,-130.7480,WO,2,2,TROLLEY,bamboo_forest,R,0.9939,NR,3.0000
391,10,175,154.8170,-142.8148,WI,4,3,PAN,limousine_interior,R,0.8379,NR,3.0000
392,10,176,166.8849,-154.8834,WI,4,3,RABBIT,stage,NR,999.0000,NR,3.0000
393,10,177,178.9518,-166.9499,WO,4,3,VINE,river,NR,999.0000,NR,3.0000
394,10,178,191.0199,-179.0182,WO,4,3,YACHT,construction_site,R,0.7646,NR,3.0000
395,10,179,203.0868,-191.0852,WI,4,3,SCREWDRIVER,courtroom,R,0.8515,NR,3.0000
396,10,180,215.1543,-203.1531,WO,4,3,HELMET,office_building,R,1.5512,NR,3.0000
397,10,181,227.2206,-215.2189,WI,2,2,PASSPORT,control_room,NR,999.0000,NR,3.0000
398,10,182,239.2877,-227.2860,WO,2,2,BEAVER,barn,R,2.9292,NR,3.0000
399,10,183,251.3546,-239.3536,WO,4,3,BANDIT,mountain,R,2.3515,NR,3.0000
400,10,184,263.4212,-251.4201,WI,2,2,PENNY,auditorium,NR,999.0000,NR,3.0000
401,10,185,275.4886,-263.4866,WI,2,2,MOUSE,tennis_court,NR,999.0000,NR,3.0000
402,10,186,287.5560,-275.5551,WI,4,4,RABBIT,stage,R,1.2105,NR,3.0000
403,10,187,299.6227,-287.6220,WO,4,4,CHOCOLATE,dock,NR,999.0000,NR,3.0000
404,10,188,311.6889,-299.6872,WI,2,2,WALNUT,bistro,NR,999.0000,NR,3.0000
405,10,189,323.7562,-311.7529,WI,2,2,MAGICIAN,fastfood_restaurant,NR,999.0000,NR,3.0000
406,10,190,335.8257,-323.8248,WO,2,2,ANCHOR,ocean,R,2.7124,NR,3.0000
407,10,191,347.8924,-335.8915,WO,4,4,HELMET,office_building,R,0.8204,NR,3.0000
408,10,192,359.9591,-347.9564,WI,4,3,BOWL,basement,R,1.0373,NR,3.0000
409,10,193,372.0278,-360.0263,WI,4,4,PAN,limousine_interior,NR,999.0000,NR,3.0000
410,10,194,384.0955,-372.0945,WO,4,3,RIFLE,arch,R,1.7283,NR,3.0000
411,10,195,396.1630,-384.1612,WO,4,4,VINE,river,NR,999.0000,NR,3.0000
412,10,196,408.2310,-396.2291,WI,2,2,LAMP,nursery,R,1.4706,NR,3.0000
413,10,197,420.2988,-408.2964,WI,4,4,QUARTER,athletic_field,NR,999.0000,NR,3.0000
414,10,198,432.3678,-420.3666,WO,4,4,BANDIT,mountain,R,1.5724,NR,3.0000
415,10,199,444.4347,-432.4327,WI,4,4,APPLE,subway_interior,R,1.5877,NR,3.0000
416,10,200,456.5026,-444.5005,WO,2,2,CRAB,field_wild,R,1.6232,NR,3.0000
417,10,201,468.5706,-456.5693,WO,4,4,RIFLE,arch,NR,999.0000,NR,3.0000
418,10,202,480.6391,-468.6382,WI,4,4,SCREWDRIVER,courtroom,R,1.2874,NR,3.0000
419,10,203,492.7065,-480.7054,WO,4,4,YACHT,construction_site,R,1.3456,NR,3.0000
420,10,204,504.7738,-492.7717,WI,4,4,BOWL,basement,R,1.5839,NR,3.0000
421,11,181,10.0040,1.9978,WI,4,3,DOVE,laundromat,R,2.1680,NR,3.0000
422,11,182,22.0753,-10.0732,WI,2,2,CAGE,art_studio,R,1.5005,NR,3.0000
423,11,183,34.1441,-22.1433,WO,4,3,PUMPKIN,nuclear_power_plant,R,1.4485,NR,3.0000
424,11,184,46.2117,-34.2104,WO,4,3,BALLOON,herb_garden,R,0.8462,NR,3.0000
425,11,185,58.2791,-46.2770,WI,4,3,BROWNIE,home_office,R,1.9438,NR,3.0000
426,11,186,70.3483,-58.3474,WI,4,3,HOSE,bowling_alley,R,1.5426,NR,3.0000
427,11,187,82.4161,-70.4146,WO,2,2,GLOBE,cottage_garden,NR,999.0000,NR,3.0000
428,11,188,94.4842,-82.4833,WO,4,4,PUMPKIN,nuclear_power_plant,R,0.9940,NR,3.0000
429,11,189,106.5540,-94.5527,WO,4,3,BARREL,palace,R,1.5385,NR,3.0000
430,11,190,118.6221,-106.6205,WI,2,2,LANTERN,galley,R,1.8163,NR,3.0000
431,11,191,130.6924,-118.6906,WI,4,3,SPATULA,synagogue,R,1.5635,NR,3.0000
432,11,192,142.7605,-130.7590,WO,4,3,RICE,excavation,R,1.3785,NR,3.0000
433,11,193,154.8283,-142.8274,WO,2,2,OATMEAL,basketball_court,R,2.0498,NR,3.0000
434,11,194,166.8960,-154.8947,WI,4,4,BROWNIE,home_office,R,1.2770,NR,3.0000
435,11,195,178.9637,-166.9620,WO,2,2,MUSTARD,greenhouse,R,2.5960,NR,3.0000
436,11,196,191.0325,-179.0308,WI,2,2,BENCH,bookstore,R,1.7632,NR,3.0000
437,11,197,203.1004,-191.0989,WI,4,4,DOVE,laundromat,R,1.3792,NR,3.0000
438,11,198,215.1682,-203.1669,WO,2,2,TELEGRAPH,aqueduct,R,1.5941,NR,3.0000
439,11,199,227.2366,-215.2352,WO,2,2,PEARL,dam,R,2.4938,NR,3.0000
440,11,200,239.3048,-227.3037,WI,2,2,TOWEL,badminton_court,R,0.9562,NR,3.0000
441,11,201,251.3731,-239.3711,WI,4,4,HOSE,bowling_alley,R,0.8191,NR,3.0000
442,11,202,263.4418,-251.4402,WO,4,3,SCISSORS,corn_field,NR,999.0000,R,3.2422
443,11,203,275.5102,-263.5081,WI,2,2,CHEESE,squash_court,NR,999.0000,R,10.2549
444,11,204,287.5796,-275.5784,WO,4,3,ZIPPER,cliff,NR,999.0000,R,3.1010
445,11,205,299.6476,-287.6467,WI,4,3,HONEY,restaurant,R,2.8850,NR,3.0000
446,11,206,311.7151,-299.7144,WO,4,4,SCISSORS,corn_field,NR,999.0000,NR,3.0000
447,11,207,323.7823,-311.7803,WI,4,3,CLAM,parking_garage,R,1.8194,NR,3.0000
448,11,208,335.8508,-323.8495,WO,4,3,RASH,railroad_track,R,2.3250,NR,3.0000
449,11,209,347.9193,-335.9186,WO,4,4,RICE,excavation,R,1.3399,NR,3.0000
450,11,210,359.9882,-347.9874,WI,4,4,HONEY,restaurant,R,1.7930,NR,3.0000
451,11,211,372.0563,-360.0547,WO,4,4,BARREL,palace,R,1.4373,NR,3.0000
452,11,212,384.1243,-372.1235,WI,2,2,SOOT,ball_pit,R,1.4752,NR,3.0000
453,11,213,396.1917,-384.1907,WI,4,3,MAP,living_room,R,1.1429,NR,3.0000
454,11,214,408.2601,-396.2592,WO,2,2,SOAP,pagoda,R,0.5898,NR,3.0000
455,11,215,420.3277,-408.3268,WO,2,2,CLARINET,crosswalk,R,1.9763,NR,3.0000
456,11,216,432.3956,-420.3938,WI,2,2,TEETH,casino,R,1.3034,NR,3.0000
457,11,217,444.4640,-432.4624,WO,4,4,ZIPPER,cliff,R,0.6183,NR,3.0000
458,11,218,456.5326,-444.5307,WO,4,4,BALLOON,herb_garden,R,1.9605,NR,3.0000
459,11,219,468.6019,-456.6001,WI,4,4,SPATULA,synagogue,R,0.7739,R,8.1779
460,11,220,480.6705,-468.6685,WI,4,4,MAP,living_room,R,0.9710,NR,3.0000
461,11,221,492.7395,-480.7372,WO,4,4,RASH,railroad_track,R,0.5993,NR,3.0000
462,11,222,504.8086,-492.8076,WI,4,4,CLAM,parking_garage,R,0.7818,NR,3.0000
463,12,199,10.0032,1.9977,WI,4,3,ROPE,boxing_ring,NR,999.0000,NR,3.0000
464,12,200,22.0735,-10.0721,WI,2,2,TOBACCO,jail_cell,R,0.7260,NR,3.0000
465,12,201,34.1413,-22.1400,WI,4,3,PLUG,attic,R,0.4664,NR,3.0000
466,12,202,46.2091,-34.2068,WO,2,2,SHOWER,ice_floe,NR,999.0000,NR,3.0000
467,12,203,58.2773,-46.2750,WO,4,3,VELVET,fire_escape,R,0.6615,NR,3.0000
468,12,204,70.3464,-58.3449,WO,4,3,KILT,ice_shelf,R,2.7687,NR,3.0000
469,12,205,82.4140,-70.4119,WI,2,2,OTTER,jacuzzi,R,0.9434,NR,3.0000
470,12,206,94.4820,-82.4813,WO,4,3,HATCHET,basilica,R,0.5561,NR,3.0000
471,12,207,106.5492,-94.5480,WI,4,3,BATON,hospital_room,R,2.7372,NR,3.0000
472,12,208,118.6164,-106.6145,WI,4,3,ARMOR,movie_theater,R,1.6860,R,10.0651
473,12,209,130.6850,-118.6835,WO,4,3,SADDLE,gas_station,R,2.0985,NR,3.0000
474,12,210,142.7526,-130.7518,WI,4,3,JACKET,amusement_arcade,R,1.1350,NR,3.0000
475,12,211,154.8196,-142.8186,WI,4,3,DRUG,art_gallery,NR,999.0000,NR,3.0000
476,12,212,166.8869,-154.8861,WO,2,2,DESK,field_cultivated,R,0.6350,NR,3.0000
477,12,213,178.9537,-166.9522,WO,4,3,GOAT,chalet,R,2.4309,NR,3.0000
478,12,214,191.0216,-179.0199,WO,2,2,DAMSEL,amphitheater,R,0.9334,NR,3.0000
479,12,215,203.0894,-191.0878,WI,2,2,PYTHON,archive,NR,999.0000,R,3.7577
480,12,216,215.1571,-203.1556,WO,2,2,POSTER,gazebo,R,2.4397,NR,3.0000
481,12,217,227.2248,-215.2234,WI,2,2,TABLE,baggage_claim,R,0.8351,NR,3.0000
482,12,218,239.2927,-227.2904,WO,2,2,HIGHWAY,badlands,R,0.7455,NR,3.0000
483,12,219,251.3616,-239.3605,WO,4,3,KNIFE,orchard,R,1.3253,NR,3.0000
484,12,220,263.4289,-251.4275,WO,4,3,KALE,desert,R,1.1565,NR,3.0000
485,12,221,275.4964,-263.4949,WI,4,4,BATON,hospital_room,R,1.1524,NR,3.0000
486,12,222,287.5640,-275.5621,WI,4,4,ROPE,boxing_ring,R,0.4939,NR,3.0000
487,12,223,299.6325,-287.6304,WO,2,2,BOOT,electrical_substation,R,2.1857,NR,3.0000
488,12,224,311.7014,-299.6995,WI,4,3,SNOW,parlor,R,2.4144,UR,3.0110
489,12,225,323.7698,-311.7679,WO,4,4,HATCHET,basilica,NR,999.0000,NR,3.0000
490,12,226,335.8380,-323.8368,WO,4,4,KILT,ice_shelf,R,2.0094,NR,3.0000
491,12,227,347.9059,-335.9051,WI,4,4,JACKET,amusement_arcade,R,0.2949,NR,3.0000
492,12,228,359.9730,-347.9720,WO,2,2,SOUP,fire_station,R,0.8570,NR,3.0000
493,12,229,372.0406,-360.0398,WO,4,4,KNIFE,orchard,R,0.8870,NR,3.0000
494,12,230,384.1076,-372.1064,WI,4,4,ARMOR,movie_theater,R,0.6201,NR,3.0000
495,12,231,396.1753,-384.1740,WI,4,4,DRUG,art_gallery,R,0.7365,NR,3.0000
496,12,232,408.2435,-396.2418,WO,4,4,KALE,desert,R,0.6936,NR,3.0000
497,12,233,420.3115,-408.3106,WI,2,2,GEESE,dining_room,R,2.7879,NR,3.0000
498,12,234,432.3789,-420.3772,WO,4,4,VELVET,fire_escape,R,0.3921,NR,3.0000
499,12,235,444.4468,-432.4453,WI,2,2,PANTS,operating_room,R,0.2297,NR,3.0000
500,12,236,456.5147,-444.5135,WO,4,4,GOAT,chalet,R,0.8021,NR,3.0000
501,12,237,468.5825,-456.5811,WI,4,4,SNOW,parlor,R,0.4076,NR,3.0000
502,12,238,480.6504,-468.6492,WI,2,2,BROOM,bathroom,R,1.6999,NR,3.0000
503,12,239,492.7184,-480.7170,WI,4,4,PLUG,attic,R,1.7152,NR,3.0000
504,12,240,504.7861,-492.7853,WO,4,4,SADDLE,gas_station,R,1.4390,NR,3.0000
