index,run,trial,onset,duration,cond,shockCond,shockTrial,target,associate,resp,acc,accSpec,respRT,ISIresp,ISIacc,ISIaccSpec,ISIrespRT
1,1,1,12.0203,9.2876,TI_2,threat,0,BONE,closet,F,M,MI,0.9551,NR,NR,NR,999.0000
2,1,2,21.3368,9.8067,TI_4,threat,0,ICICLE,sauna,TO,SM,SMI_Lo,2.5345,NR,NR,NR,999.0000
3,1,3,31.1785,9.1103,TI_2,threat,0,BANDAGE,badminton_court,F,M,MI,1.2078,NR,NR,NR,999.0000
4,1,4,40.3092,9.1867,TO_4,threat,0,SHOVEL,boardwalk,TI,SM,SMO_Hi,3.7062,NR,NR,NR,999.0000
5,1,5,49.5155,9.4023,F,threat,0,CHERRY,foil,F,CR,CR,2.2522,NR,NR,NR,999.0000
6,1,6,58.9479,10.5514,TO_2,threat,0,GOAT,raceway,TI,SM,SMO_Lo,2.6032,NR,NR,NR,999.0000
7,1,7,69.5282,14.3258,TI_2,threat,1,LANTERN,hospital_room,TO,SM,SMI_Lo,2.2153,NR,NR,NR,999.0000
8,1,8,84.2717,8.9864,F,threat,0,BABY,foil,F,CR,CR,1.5186,NR,NR,NR,999.0000
9,1,9,93.2884,9.7533,TO_2,threat,0,WALRUS,oilrig,TI,SM,SMO_Lo,2.1890,TO,H,HO_Lo,0.1260
10,1,10,103.0713,10.1073,TI_4,threat,0,KALE,subway_interior,TI,H,HI_Lo,3.7149,NR,NR,NR,999.0000
11,1,11,113.2087,10.5686,TO_4,threat,0,ACROBAT,ruin,TO,H,HO_Hi,1.8546,NR,NR,NR,999.0000
12,1,12,123.8079,10.0935,TI_4,threat,0,VODKA,florist_shop,TI,H,HI_Hi,2.2679,NR,NR,NR,999.0000
13,1,13,133.9314,9.7555,TO_4,threat,0,ANCHOR,moat,TO,H,HO_Hi,2.3515,NR,NR,NR,999.0000
14,1,14,143.7170,10.1976,TI_2,threat,0,CAMEL,shopping_mall,TI,H,HI_Lo,1.9531,NR,NR,NR,999.0000
15,1,15,153.9452,9.1459,F,threat,0,SUBMARINE,foil,F,CR,CR,2.1746,NR,NR,NR,999.0000
16,1,16,163.1212,11.9411,F,threat,0,SCISSORS,foil,F,CR,CR,1.4032,NR,NR,NR,999.0000
17,1,17,175.0926,9.0996,F,threat,0,MONKEY,foil,F,CR,CR,2.2359,NR,NR,NR,999.0000
18,1,18,184.2231,11.1866,TO_4,threat,0,ORANGE,botanical_garden,TO,H,HO_Lo,2.0212,NR,NR,NR,999.0000
19,1,19,195.4399,9.9876,TO_2,threat,0,LAMB,greenhouse,TI,SM,SMO_Lo,2.4960,NR,NR,NR,999.0000
20,1,20,205.4579,9.9127,TO_2,threat,0,LIME,highway,TO,H,HO_Lo,2.6738,NR,NR,NR,999.0000
21,1,21,215.4008,9.4183,F,threat,0,RABBIT,foil,F,CR,CR,1.3337,NR,NR,NR,999.0000
22,1,22,224.8496,10.7071,TO_4,threat,0,WALLET,cliff,TO,H,HO_Hi,2.9222,NR,NR,NR,999.0000
23,1,23,235.5870,9.7623,TI_4,threat,0,DOVE,restaurant_kitchen,TO,SM,SMI_Lo,1.8828,NR,NR,NR,999.0000
24,1,24,245.3801,9.9305,F,threat,0,RUDDER,foil,F,CR,CR,1.0267,NR,NR,NR,999.0000
25,1,25,255.3410,9.0579,TO_2,threat,0,BANANA,igloo,F,M,MI,1.6166,NR,NR,NR,999.0000
26,1,26,264.4294,10.4698,F,threat,0,ZIPPER,foil,F,CR,CR,0.9553,NR,NR,NR,999.0000
27,1,27,274.9302,9.6861,F,threat,0,SUNBURN,foil,F,CR,CR,1.0966,NR,NR,NR,999.0000
28,1,28,284.6469,11.6217,TO_4,threat,0,HONEY,motel,F,M,MI,2.3861,NR,NR,NR,999.0000
29,1,29,296.2991,11.2657,TI_2,threat,0,TRIBE,laundromat,TO,SM,SMI_Hi,2.2757,NR,NR,NR,999.0000
30,1,30,307.5953,9.6308,F,threat,0,STORK,foil,F,CR,CR,1.3603,NR,NR,NR,999.0000
31,1,31,317.2582,9.1228,F,threat,0,BATON,foil,F,CR,CR,1.8293,NR,NR,NR,999.0000
32,1,32,326.4117,10.9961,TI_4,threat,0,CHOCOLATE,amusement_arcade,F,M,MI,0.9541,NR,NR,NR,999.0000
33,1,33,337.4380,9.9201,TO_2,threat,0,KNIFE,outhouse,F,M,MI,1.1857,NR,NR,NR,999.0000
34,1,34,347.3880,9.6871,TI_2,threat,0,CANE,biology_laboratory,TI,H,HI_Lo,2.3468,NR,NR,NR,999.0000
35,1,35,357.1051,10.6518,TO_4,threat,0,TIGER,field_wild,TO,H,HO_Lo,2.4051,NR,NR,NR,999.0000
36,1,36,367.7871,12.3273,TI_4,threat,0,OATMEAL,art_gallery,F,M,MI,1.0358,NR,NR,NR,999.0000
37,1,37,380.1446,10.3723,TI_4,threat,0,RASH,cafeteria,TI,H,HI_Hi,2.3818,NR,NR,NR,999.0000
38,1,38,390.5477,11.6806,F,threat,0,JUGGLER,foil,F,CR,CR,1.2876,NR,NR,NR,999.0000
39,1,39,402.2586,11.3341,F,threat,0,MOTH,foil,F,CR,CR,1.0227,NR,NR,NR,999.0000
40,1,40,413.6228,9.5370,TI_2,threat,0,HIGHWAY,kitchenette,TO,SM,SMI_Lo,2.2226,NR,NR,NR,999.0000
41,1,41,423.1904,9.8953,TO_2,threat,0,MEDAL,gas_station,TO,H,HO_Hi,3.3917,NR,NR,NR,999.0000
42,1,42,433.1158,9.2533,F,threat,0,APPLE,foil,F,CR,CR,1.2982,NR,NR,NR,999.0000
43,2,1,12.0049,9.9386,TO_4,safe,0,ROPE,hayfield,F,M,MI,1.2442,NR,NR,NR,999.0000
44,2,2,21.9762,10.5652,TI_4,safe,0,POSTER,train_station,TO,SM,SMI_Lo,1.9771,NR,NR,NR,999.0000
45,2,3,32.5700,9.9226,TI_4,safe,0,BROWNIE,shoe_shop,TI,H,HI_Lo,1.6891,NR,NR,NR,999.0000
46,2,4,42.5219,9.9332,TO_2,safe,0,PUMPKIN,excavation,F,M,MI,1.6525,NR,NR,NR,999.0000
47,2,5,52.4835,9.2770,TO_4,safe,0,KILT,amphitheater,TO,H,HO_Hi,1.3409,NR,NR,NR,999.0000
48,2,6,61.7890,10.0947,F,safe,0,VINE,foil,F,CR,CR,1.8223,NR,NR,NR,999.0000
49,2,7,71.9049,9.8175,TO_2,safe,0,STOMACH,formal_garden,F,M,MI,0.8946,NR,NR,NR,999.0000
50,2,8,81.7511,12.3246,TI_2,safe,0,CANDY,cathedral,TI,H,HI_Lo,2.4930,NR,NR,NR,999.0000
51,2,9,94.1046,9.1027,F,safe,0,MOUSE,foil,F,CR,CR,1.1212,NR,NR,NR,999.0000
52,2,10,103.2364,10.1973,F,safe,0,DRUM,foil,F,CR,CR,1.2371,NR,NR,NR,999.0000
53,2,11,113.4625,9.5372,TO_4,safe,0,HOOK,carrousel,TO,H,HO_Lo,1.8943,NR,NR,NR,999.0000
54,2,12,123.0286,10.9971,F,safe,0,ENVELOPE,foil,F,CR,CR,1.2062,NR,NR,NR,999.0000
55,2,13,134.0555,9.6893,TI_4,safe,0,GLOBE,bowling_alley,TO,SM,SMI_Hi,2.7437,NR,NR,NR,999.0000
56,2,14,143.7736,12.3288,TO_2,safe,0,OLIVE,boathouse,TO,H,HO_Hi,2.4236,NR,NR,NR,999.0000
57,2,15,156.1313,10.4709,F,safe,0,TWEEZERS,foil,F,CR,CR,2.3158,NR,NR,NR,999.0000
58,2,16,166.6317,9.7556,TI_2,safe,0,DETECTIVE,squash_court,F,M,MI,1.1199,NR,NR,NR,999.0000
59,2,17,176.4162,11.9437,F,safe,0,DAISY,foil,F,CR,CR,2.7860,NR,NR,NR,999.0000
60,2,18,188.3889,11.1861,TO_2,safe,0,PEDAL,putting_green,TI,SM,SMO_Lo,1.9212,NR,NR,NR,999.0000
61,2,19,199.6046,9.1778,TI_2,safe,0,QUAIL,restaurant,TI,H,HI_Hi,3.7492,NR,NR,NR,999.0000
62,2,20,208.8114,9.3765,TI_4,safe,0,SEAWEED,boxing_ring,F,M,MI,2.0834,NR,NR,NR,999.0000
63,2,21,218.2166,9.1168,TI_2,safe,0,SQUIRREL,game_room,TI,H,HI_Lo,2.0104,NR,NR,NR,999.0000
64,2,22,227.3627,10.1065,TO_4,safe,0,BIBLE,cottage_garden,TO,H,HO_Hi,2.5317,NR,NR,NR,999.0000
65,2,23,237.4980,10.5545,F,safe,0,BASKET,foil,TO,FA,FAO_Lo,2.4270,F,CR,CR,2.8626
66,2,24,248.0814,9.0582,F,safe,0,BUTTER,foil,F,CR,CR,1.6324,NR,NR,NR,999.0000
67,2,25,257.1692,9.9889,TI_4,safe,0,THONG,jewelry_shop,TI,H,HI_Hi,2.3760,NR,NR,NR,999.0000
68,2,26,267.1873,9.3918,TO_4,safe,0,MAGICIAN,pavilion,TO,H,HO_Hi,2.0195,NR,NR,NR,999.0000
69,2,27,276.6081,9.2550,TI_2,safe,0,PIANO,toyshop,TO,SM,SMI_Lo,1.7963,NR,NR,NR,999.0000
70,2,28,285.8928,9.7544,F,safe,0,SARDINE,foil,F,CR,CR,2.3718,NR,NR,NR,999.0000
71,2,29,295.6762,9.8960,TO_2,safe,0,DOLL,orchard,TI,SM,SMO_Lo,2.7194,NR,NR,NR,999.0000
72,2,30,305.6012,10.7100,TI_2,safe,0,WORM,synagogue,F,M,MI,2.5572,NR,NR,NR,999.0000
73,2,31,316.3403,9.4190,F,safe,0,SHEEP,foil,TO,FA,FAO_Lo,2.1798,NR,NR,NR,999.0000
74,2,32,325.7884,11.6821,TO_2,safe,0,PAN,oil_refinery,TI,SM,SMO_Lo,2.0902,NR,NR,NR,999.0000
75,2,33,337.4997,10.3720,F,safe,0,POTATO,foil,TO,FA,FAO_Lo,2.6891,NR,NR,NR,999.0000
76,2,34,347.9013,9.1476,TI_4,safe,0,QUARTER,throne_room,TO,SM,SMI_Lo,2.4813,NR,NR,NR,999.0000
77,2,35,357.0780,11.2676,TO_4,safe,0,SALAD,hot_spring,TI,SM,SMO_Lo,2.4485,NR,NR,NR,999.0000
78,2,36,368.3749,9.7613,F,safe,0,SCAB,foil,F,CR,CR,1.9721,NR,NR,NR,999.0000
79,2,37,378.1659,9.6328,F,safe,0,NEEDLE,foil,F,CR,CR,2.2379,NR,NR,NR,999.0000
80,2,38,387.8278,9.1257,F,safe,0,LETTUCE,foil,TI,FA,FAI_Lo,2.5223,NR,NR,NR,999.0000
81,2,39,396.9827,11.3366,TI_4,safe,0,POWDER,kindergarden_classroom,TO,SM,SMI_Lo,3.9291,NR,NR,NR,999.0000
82,2,40,408.3491,9.6860,TI_2,safe,0,SOAP,engine_room,TI,H,HI_Lo,2.0747,NR,NR,NR,999.0000
83,2,41,418.0645,10.6528,TO_2,safe,0,EAGLE,crevasse,F,M,MI,2.0023,NR,NR,NR,999.0000
84,2,42,428.7466,11.6209,TO_4,safe,0,CRADLE,office_building,F,M,MI,1.2115,NR,NR,NR,999.0000
85,3,1,12.0042,9.1514,TI_4,threat,0,SCREWDRIVER,dorm_room,TO,SM,SMI_Lo,1.4527,NR,NR,NR,999.0000
86,3,2,21.1887,9.6860,TO_4,threat,0,SNOW,fountain,TI,SM,SMO_Lo,1.4322,NR,NR,NR,999.0000
87,3,3,30.9047,9.7610,TI_4,threat,0,LIGHTNING,supermarket,TO,SM,SMI_Lo,1.8177,NR,NR,NR,999.0000
88,3,4,40.6975,10.7076,TO_2,threat,0,PIGEON,basilica,TO,H,HO_Hi,2.0697,NR,NR,NR,999.0000
89,3,5,51.4349,9.7556,TO_4,threat,0,FENCE,mosque,TO,H,HO_Hi,1.6684,NR,NR,NR,999.0000
90,3,6,61.5015,9.9160,F,threat,0,WITCH,foil,F,CR,CR,1.5622,NR,NR,NR,999.0000
91,3,7,71.4479,10.3703,F,threat,0,ARROW,foil,F,CR,CR,0.8251,NR,NR,NR,999.0000
92,3,8,81.8484,9.3748,F,threat,0,NOODLE,foil,F,CR,CR,0.9089,NR,NR,NR,999.0000
93,3,9,91.2533,9.1774,TO_4,threat,0,COFFEE,rice_paddy,F,M,MI,1.7857,NR,NR,NR,999.0000
94,3,10,100.4612,10.1057,F,threat,0,WOLF,foil,TI,FA,FAI_Lo,3.3278,NR,NR,NR,999.0000
95,3,11,110.5969,11.6210,TO_4,threat,0,OTTER,manufactured_home,TO,H,HO_Lo,3.5515,NR,NR,NR,999.0000
96,3,12,122.2485,9.5369,TO_4,threat,0,VIOLIN,basketball_court,TO,H,HO_Hi,2.3256,NR,NR,NR,999.0000
97,3,13,131.8154,11.2655,TI_4,threat,0,WALNUT,cloister,TO,SM,SMI_Hi,3.1736,NR,NR,NR,999.0000
98,3,14,143.1111,9.2735,TO_2,threat,0,ROSARY,campsite,TO,H,HO_Hi,2.3803,NR,NR,NR,999.0000
99,3,15,152.4152,11.3371,TO_4,threat,0,MAP,crosswalk,TO,H,HO_Hi,1.5143,NR,NR,NR,999.0000
100,3,16,163.7824,9.9880,TI_4,threat,0,RACQUET,ball_pit,TI,H,HI_Hi,3.2818,NR,NR,NR,999.0000
101,3,17,173.8007,10.9956,F,threat,0,BAYONET,foil,F,CR,CR,1.5078,NR,NR,NR,999.0000
102,3,18,184.8271,11.6788,F,threat,0,PASSPORT,foil,F,CR,CR,1.4856,NR,NR,NR,999.0000
103,3,19,196.5361,9.1470,F,threat,0,EMPEROR,foil,F,CR,CR,0.8652,NR,NR,NR,999.0000
104,3,20,205.7133,10.4702,TO_2,threat,0,QUILT,patio,TO,H,HO_Lo,2.2951,NR,NR,NR,999.0000
105,3,21,216.2144,9.6837,F,threat,0,VELVET,foil,F,CR,CR,1.0363,NR,NR,NR,999.0000
106,3,22,225.9282,9.1012,TI_2,threat,0,CAGE,television_studio,TI,H,HI_Lo,1.9468,NR,NR,NR,999.0000
107,3,23,235.0597,9.9126,F,threat,0,TORNADO,foil,F,CR,CR,1.1888,NR,NR,NR,999.0000
108,3,24,245.0030,9.6312,TI_2,threat,0,BUCKET,jail_cell,TI,H,HI_Hi,2.3297,NR,NR,NR,999.0000
109,3,25,254.6646,11.1863,F,threat,0,CARROT,foil,TO,FA,FAO_Lo,1.8925,NR,NR,NR,999.0000
110,3,26,265.8813,10.0952,TO_2,threat,0,WRENCH,canal,TI,SM,SMO_Hi,2.6402,NR,NR,NR,999.0000
111,3,27,276.0071,12.3268,TO_4,threat,0,WINE,harbor,TO,H,HO_Hi,2.9814,NR,NR,NR,999.0000
112,3,28,288.3641,9.1167,TI_2,threat,0,EASEL,music_studio,TI,H,HI_Lo,2.6154,NR,NR,NR,999.0000
113,3,29,297.5109,9.3895,TI_4,threat,0,OMELET,auto_factory,TO,SM,SMI_Lo,2.8233,NR,NR,NR,999.0000
114,3,30,306.9310,10.5668,TI_2,threat,0,EYE,bar,F,M,MI,1.5529,NR,NR,NR,999.0000
115,3,31,317.5282,9.2531,F,threat,0,BEAVER,foil,TI,FA,FAI_Lo,2.4750,NR,NR,NR,999.0000
116,3,32,326.8115,10.5524,F,threat,0,FIRE,foil,F,CR,CR,1.8652,NR,NR,NR,999.0000
117,3,33,337.3948,11.9207,TI_2,threat,1,SPONGE,bus_interior,TO,SM,SMI_Lo,1.7358,NR,NR,NR,999.0000
118,3,34,349.3487,9.7522,TO_2,threat,0,FAN,boat_deck,TO,H,HO_Lo,1.4701,NR,NR,NR,999.0000
119,3,35,359.1344,9.8912,F,threat,0,CHEESE,foil,F,CR,CR,1.9127,NR,NR,NR,999.0000
120,3,36,369.0590,9.8034,TO_2,threat,0,MEDICINE,rock_arch,F,M,MI,2.2536,NR,NR,NR,999.0000
121,3,37,378.8955,9.0563,TI_4,threat,0,DESK,parlor,TI,H,HI_Hi,3.1735,NR,NR,NR,999.0000
122,3,38,387.9852,12.3197,TI_2,threat,0,OPIUM,fastfood_restaurant,TO,SM,SMI_Hi,2.2047,NR,NR,NR,999.0000
123,3,39,400.3397,9.9267,TO_2,threat,0,DUST,field_cultivated,TI,SM,SMO_Lo,2.7785,NR,NR,NR,999.0000
124,3,40,410.2998,11.9391,F,threat,0,OYSTER,foil,F,CR,CR,3.1775,NR,NR,NR,999.0000
125,3,41,422.2724,9.4134,TI_4,threat,0,MITTEN,banquet_hall,TI,H,HI_Hi,2.0848,NR,NR,NR,999.0000
126,3,42,431.7198,10.6493,TI_2,threat,0,HOSE,swimming_pool,TI,H,HI_Hi,2.4426,NR,NR,NR,999.0000
127,4,1,12.0048,10.7346,F,safe,0,BARREL,foil,TI,FA,FAI_Lo,1.9840,NR,NR,NR,999.0000
128,4,2,22.7744,10.4664,TO_4,safe,0,SHELL,hangar,TO,H,HO_Hi,1.9782,NR,NR,NR,999.0000
129,4,3,33.2724,12.3264,TO_4,safe,0,ASPIRIN,herb_garden,TO,H,HO_Hi,1.4586,NR,NR,NR,999.0000
130,4,4,45.6310,10.5656,TO_4,safe,0,TURTLE,fire_station,TO,H,HO_Lo,1.8902,NR,NR,NR,999.0000
131,4,5,56.2280,9.9205,F,safe,0,SCOTCH,foil,F,CR,CR,1.0349,NR,NR,NR,999.0000
132,4,6,66.1802,10.5510,TO_2,safe,0,SPATULA,ice_floe,F,M,MI,1.7685,NR,NR,NR,999.0000
133,4,7,76.7633,9.9110,TO_4,safe,0,OWL,beach,F,M,MI,1.1170,NR,NR,NR,999.0000
134,4,8,86.7063,9.7521,TI_4,safe,0,CORAL,butchers_shop,TI,H,HI_Lo,2.5876,NR,NR,NR,999.0000
135,4,9,96.4904,11.6788,F,safe,0,CHICKEN,foil,F,CR,CR,2.3883,NR,NR,NR,999.0000
136,4,10,108.2017,9.1208,TI_4,safe,0,TABLE,archive,F,M,MI,1.9917,NR,NR,NR,999.0000
137,4,11,117.3545,9.3726,TI_2,safe,0,BROOM,athletic_field,TO,SM,SMI_Lo,1.5609,NR,NR,NR,999.0000
138,4,12,126.7593,9.0982,F,safe,0,TELEGRAPH,foil,F,CR,CR,1.2372,NR,NR,NR,999.0000
139,4,13,135.8895,9.5359,TI_4,safe,0,DRUG,galley,TO,SM,SMI_Hi,1.7945,NR,NR,NR,999.0000
140,4,14,145.4583,9.8909,F,safe,0,RING,foil,TI,FA,FAI_Lo,2.5014,NR,NR,NR,999.0000
141,4,15,155.3811,9.2739,F,safe,0,FIDDLE,foil,F,CR,CR,2.0685,NR,NR,NR,999.0000
142,4,16,164.6869,10.9934,TO_2,safe,0,BRACELET,chalet,TI,SM,SMO_Lo,2.5598,NR,NR,NR,999.0000
143,4,17,175.7128,9.7596,TO_4,safe,0,ELEPHANT,cabin,TO,H,HO_Hi,2.9588,NR,NR,NR,999.0000
144,4,18,185.5039,9.2505,TI_4,safe,0,CLAM,hotel_room,TI,H,HI_Hi,3.0042,NR,NR,NR,999.0000
145,4,19,194.7862,9.1773,F,safe,0,HELMET,foil,F,CR,CR,3.3274,NR,NR,NR,999.0000
146,4,20,203.9958,9.6311,TO_2,safe,0,PIE,house,TO,H,HO_Hi,3.0941,NR,NR,NR,999.0000
147,4,21,213.6586,9.4149,TI_2,safe,0,SADDLE,brewery,TO,SM,SMI_Lo,2.2900,NR,NR,NR,999.0000
148,4,22,223.1053,11.6202,F,safe,0,ARMOR,foil,F,CR,CR,1.6790,NR,NR,NR,999.0000
149,4,23,234.7579,10.0922,TI_2,safe,0,NECKLACE,music_store,TO,SM,SMI_Lo,2.8834,NR,NR,NR,999.0000
150,4,24,244.8819,11.2634,TI_2,safe,0,HAMMER,stage,F,M,MI,1.9612,NR,NR,NR,999.0000
151,4,25,256.1771,12.3232,TI_2,safe,0,PANTS,dining_room,TI,H,HI_Hi,3.8233,NR,NR,NR,999.0000
152,4,26,268.5326,9.6869,F,safe,0,PLUG,foil,F,CR,CR,2.2804,NR,NR,NR,999.0000
153,4,27,278.2513,9.1135,TO_2,safe,0,QUILL,balcony,TO,H,HO_Lo,2.8589,NR,NR,NR,999.0000
154,4,28,287.3973,9.0552,TI_2,safe,0,CANNON,optician,TI,H,HI_Lo,2.1527,NR,NR,NR,999.0000
155,4,29,296.4843,10.1956,TO_2,safe,0,SNAIL,rope_bridge,TO,H,HO_Lo,1.8777,NR,NR,NR,999.0000
156,4,30,306.7118,9.1453,F,safe,0,SCROLL,foil,F,CR,CR,2.4462,NR,NR,NR,999.0000
157,4,31,315.8889,9.8054,F,safe,0,WHIP,foil,F,CR,CR,2.1642,NR,NR,NR,999.0000
158,4,32,325.7266,9.9854,TO_4,safe,0,HAM,landing_deck,TO,H,HO_Lo,1.7118,NR,NR,NR,999.0000
159,4,33,335.7438,9.3892,TO_2,safe,0,LAMP,mausoleum,TI,SM,SMO_Lo,2.3630,NR,NR,NR,999.0000
160,4,34,345.1650,9.7528,F,safe,0,CROWN,foil,TO,FA,FAO_Lo,2.6371,NR,NR,NR,999.0000
161,4,35,354.9506,10.1035,TO_4,safe,0,SANDAL,fishpond,TO,H,HO_Hi,1.4784,NR,NR,NR,999.0000
162,4,36,365.0857,11.1843,TI_4,safe,0,MILK,ice_cream_parlor,TO,SM,SMI_Lo,2.4824,NR,NR,NR,999.0000
163,4,37,376.3018,11.3343,F,safe,0,FOX,foil,TI,FA,FAI_Lo,2.3773,NR,NR,NR,999.0000
164,4,38,387.6681,11.9397,TI_4,safe,0,ORCHID,gymnasium,TI,H,HI_Lo,3.0724,NR,NR,NR,999.0000
165,4,39,399.6398,9.9296,TO_2,safe,0,SOCK,barn,F,M,MI,2.0972,NR,NR,NR,999.0000
166,4,40,409.6019,9.6829,TI_2,safe,0,ANT,stable,TI,H,HI_Hi,2.7314,NR,NR,NR,999.0000
167,4,41,419.3168,10.3693,F,safe,0,DOUGHNUT,foil,F,CR,CR,3.2506,NR,NR,NR,999.0000
168,4,42,429.7181,10.6507,TI_4,safe,0,HAWK,bazaar,TI,H,HI_Lo,2.7618,NR,NR,NR,999.0000
169,5,1,12.0047,9.9567,TI_2,threat,0,KEG,casino,TI,H,HI_Hi,2.0714,NR,NR,NR,999.0000
170,5,2,21.9994,10.3644,TI_4,threat,0,GLOVE,escalator,TO,SM,SMI_Lo,2.3895,NR,NR,NR,999.0000
171,5,3,32.3962,9.1448,TI_2,threat,0,RAKE,burial_chamber,TI,H,HI_Lo,1.9181,NR,NR,NR,999.0000
172,5,4,41.5742,9.3716,F,threat,0,HATCHET,foil,TO,FA,FAO_Lo,2.2273,NR,NR,NR,999.0000
173,5,5,50.9785,9.6849,F,threat,0,BOWL,foil,F,CR,CR,2.9299,NR,NR,NR,999.0000
174,5,6,60.6961,9.0578,TO_4,threat,0,TYPEWRITER,river,TI,SM,SMO_Lo,2.4271,NR,NR,NR,999.0000
175,5,7,69.7865,11.2616,TI_4,threat,0,NAPKIN,childs_room,F,M,MI,2.9661,NR,NR,NR,999.0000
176,5,8,81.0813,11.1761,F,threat,1,RIFLE,foil,NR,NR,NR,999.0000,NR,NR,NR,999.0000
177,5,9,92.2900,9.9096,TI_4,threat,0,CANDLE,chicken_coop,TO,SM,SMI_Lo,1.7785,NR,NR,NR,999.0000
178,5,10,102.2329,10.5643,TO_2,threat,0,WAND,playground,F,M,MI,1.1543,NR,NR,NR,999.0000
179,5,11,112.8300,9.7599,TI_4,threat,0,BRAIN,ballroom,TI,H,HI_Lo,2.1267,NR,NR,NR,999.0000
180,5,12,122.6228,11.3328,TO_2,threat,0,CLARINET,corn_field,TO,H,HO_Hi,2.8202,NR,NR,NR,999.0000
181,5,13,133.9890,12.3194,TI_2,threat,0,CUCUMBER,parking_garage,TI,H,HI_Lo,2.6173,NR,NR,NR,999.0000
182,5,14,146.3413,9.9206,F,threat,0,PENCIL,foil,F,CR,CR,1.5718,NR,NR,NR,999.0000
183,5,15,156.2945,9.5333,TI_4,threat,0,SOOT,playroom,TO,SM,SMI_Lo,1.9916,TI,H,HI_Lo,1.8118
184,5,16,165.8609,9.2494,TO_2,threat,0,TEETH,pasture,F,M,MI,1.6836,NR,NR,NR,999.0000
185,5,17,175.1431,10.6489,TO_4,threat,0,TOWEL,forest_path,TI,SM,SMO_Lo,3.4089,NR,NR,NR,999.0000
186,5,18,185.8249,10.4678,F,threat,0,PUDDLE,foil,F,CR,CR,2.3966,NR,NR,NR,999.0000
187,5,19,196.3262,11.1823,F,threat,0,HARPOON,foil,TO,FA,FAO_Lo,2.8711,NR,NR,NR,999.0000
188,5,20,207.5415,9.4142,TI_4,threat,0,SAXOPHONE,classroom,TI,H,HI_Hi,2.9591,NR,NR,NR,999.0000
189,5,21,216.9886,10.9930,F,threat,0,TROPHY,foil,F,CR,CR,1.2793,NR,NR,NR,999.0000
190,5,22,228.0153,11.6811,TO_4,threat,1,PYTHON,amusement_park,NR,NR,NR,999.0000,TO,H,HO_Lo,0.0942
191,5,23,239.7295,9.0981,TO_2,threat,0,SCORPION,butte,TO,H,HO_Hi,1.4965,NR,NR,NR,999.0000
192,5,24,248.8607,10.7072,F,threat,0,CAMERA,foil,F,CR,CR,1.2330,NR,NR,NR,999.0000
193,5,25,259.6016,12.3245,TI_2,threat,0,DIAMOND,locker_room,TO,SM,SMI_Lo,2.4344,NR,NR,NR,999.0000
194,5,26,271.9591,9.8040,F,threat,0,MUFFIN,foil,F,CR,CR,1.3518,NR,NR,NR,999.0000
195,5,27,281.7968,10.1028,TO_2,threat,0,SHARK,picnic_area,TO,H,HO_Lo,3.7254,NR,NR,NR,999.0000
196,5,28,291.9326,9.3857,F,threat,0,NET,foil,F,CR,CR,2.2938,NR,NR,NR,999.0000
197,5,29,301.3514,11.6787,TO_4,threat,0,STOOL,bullring,TI,SM,SMO_Lo,2.1959,NR,NR,NR,999.0000
198,5,30,313.0639,10.1932,F,threat,0,STAPLER,foil,F,CR,CR,1.2304,NR,NR,NR,999.0000
199,5,31,323.2902,9.9850,TO_4,threat,0,RICE,marsh,TO,H,HO_Hi,1.8198,NR,NR,NR,999.0000
200,5,32,333.3084,10.0926,F,threat,0,BANDIT,foil,F,CR,CR,1.5966,NR,NR,NR,999.0000
201,5,33,343.4349,9.6293,TI_2,threat,0,BENCH,drugstore,F,M,MI,2.8931,NR,NR,NR,999.0000
202,5,34,353.0972,11.6167,F,threat,0,WHEAT,foil,F,CR,CR,1.6731,NR,NR,NR,999.0000
203,5,35,364.7473,9.7503,F,threat,0,PEARL,foil,TO,FA,FAO_Lo,1.6693,NR,NR,NR,999.0000
204,5,36,374.5313,9.2724,TO_2,threat,0,BOAT,badlands,TI,SM,SMO_Lo,2.1548,NR,NR,NR,999.0000
205,5,37,383.8372,9.1128,TI_2,threat,0,MOON,nursery,TI,H,HI_Lo,2.6378,NR,NR,NR,999.0000
206,5,38,392.9831,9.1200,TO_2,threat,0,LION,observatory,TO,H,HO_Hi,2.4307,NR,NR,NR,999.0000
207,5,39,402.1369,10.5501,TI_2,threat,0,SHRIMP,orchestra_pit,TI,H,HI_Lo,2.9839,NR,NR,NR,999.0000
208,5,40,412.7203,9.8911,TO_4,threat,0,NIGHTGOWN,pond,TO,H,HO_Lo,3.1147,NR,NR,NR,999.0000
209,5,41,422.6448,11.9393,TI_4,threat,0,CEREAL,kitchen,TI,H,HI_Hi,1.9886,NR,NR,NR,999.0000
210,5,42,434.6179,9.7497,TO_4,threat,0,JACKET,mountain_snowy,TO,H,HO_Hi,2.2168,NR,NR,NR,999.0000
211,6,1,12.0064,11.0201,TI_4,safe,0,FROG,theater,F,M,MI,2.8342,NR,NR,NR,999.0000
212,6,2,23.0642,10.0979,F,safe,0,ASPARAGUS,foil,F,CR,CR,1.3847,NR,NR,NR,999.0000
213,6,3,33.1966,10.3686,F,safe,0,BLANKET,foil,F,CR,CR,1.4142,NR,NR,NR,999.0000
214,6,4,43.5993,9.6292,F,safe,0,ACCORDIAN,foil,F,CR,CR,1.1362,NR,NR,NR,999.0000
215,6,5,53.2626,11.6166,TO_4,safe,0,PASTE,islet,TO,H,HO_Lo,1.9468,NR,NR,NR,999.0000
216,6,6,64.9130,9.5324,TI_4,safe,0,YACHT,assembly_line,F,M,MI,1.8042,NR,NR,NR,999.0000
217,6,7,74.4796,10.7041,TO_4,safe,0,TROLLEY,baseball_field,TO,H,HO_Hi,2.2823,NR,NR,NR,999.0000
218,6,8,85.2177,9.9082,TI_4,safe,0,SAIL,cubicle,TO,SM,SMI_Lo,2.3228,NR,NR,NR,999.0000
219,6,9,95.1605,10.4651,TO_4,safe,0,TULIP,inn,TO,H,HO_Hi,2.6874,NR,NR,NR,999.0000
220,6,10,105.6596,9.1436,TI_4,safe,0,NEST,clothing_store,TO,SM,SMI_Lo,2.8698,NR,NR,NR,999.0000
221,6,11,114.8373,9.0547,TI_2,safe,0,GARBAGE,bathroom,TI,H,HI_Hi,1.9050,NR,NR,NR,999.0000
222,6,12,123.9266,9.7485,TO_2,safe,0,ROCK,dam,TO,H,HO_Lo,2.4476,NR,NR,NR,999.0000
223,6,13,133.7098,9.8016,TI_2,safe,0,TOAST,movie_theater,TO,SM,SMI_Lo,1.8179,NR,NR,NR,999.0000
224,6,14,143.5455,9.3717,F,safe,0,FORK,foil,F,CR,CR,1.4764,NR,NR,NR,999.0000
225,6,15,152.9518,9.1724,TO_2,safe,0,PENNY,hill,TO,H,HO_Hi,2.9045,NR,NR,NR,999.0000
226,6,16,162.1584,10.0911,TI_2,safe,0,MANURE,baggage_claim,TI,H,HI_Hi,3.1499,NR,NR,NR,999.0000
227,6,17,172.2838,9.9855,TI_2,safe,0,ALLIGATOR,cockpit,F,M,MI,2.0159,NR,NR,NR,999.0000
228,6,18,182.3047,10.5627,TO_2,safe,0,GEESE,gazebo,TO,H,HO_Lo,3.1095,NR,NR,NR,999.0000
229,6,19,192.9017,11.6763,TO_2,safe,0,FLASK,forest_needleleaf,TI,SM,SMO_Lo,1.8512,NR,NR,NR,999.0000
230,6,20,204.6123,9.7503,F,safe,0,SOUP,foil,F,CR,CR,1.9861,NR,NR,NR,999.0000
231,6,21,214.3967,9.3861,F,safe,0,SWORD,foil,F,CR,CR,2.6949,NR,NR,NR,999.0000
232,6,22,223.8170,11.9368,TI_2,safe,0,CLOAK,tennis_court,F,M,MI,3.4658,NR,NR,NR,999.0000
233,6,23,235.7881,9.6826,TO_2,safe,0,SLIPPER,creek,TO,H,HO_Lo,3.4891,NR,NR,NR,999.0000
234,6,24,245.5056,10.1911,F,safe,0,ROCKER,foil,F,CR,CR,2.1034,NR,NR,NR,999.0000
235,6,25,255.7310,9.6846,TO_4,safe,0,CRAB,corral,TI,SM,SMO_Lo,2.5655,NR,NR,NR,999.0000
236,6,26,265.4499,9.4138,TO_4,safe,0,GORILLA,power_plant,TO,H,HO_Lo,2.7770,NR,NR,NR,999.0000
237,6,27,274.8986,10.6463,F,safe,0,SYRUP,foil,TI,FA,FAI_Lo,2.3639,NR,NR,NR,999.0000
238,6,28,285.5793,12.3195,F,safe,0,DAMSEL,foil,F,CR,CR,2.1128,NR,NR,NR,999.0000
239,6,29,297.9331,9.0978,F,safe,0,SCOOTER,foil,F,CR,CR,3.7902,NR,NR,NR,999.0000
240,6,30,307.0658,9.7570,TI_4,safe,0,MUSSEL,airplane_cabin,TI,H,HI_Lo,2.4715,NR,NR,NR,999.0000
241,6,31,316.8573,9.1204,TO_4,safe,0,UMBRELLA,lighthouse,TO,H,HO_Hi,3.0511,NR,NR,NR,999.0000
242,6,32,326.0122,9.9267,F,safe,0,SHOWER,foil,F,CR,CR,1.9194,NR,NR,NR,999.0000
243,6,33,335.9742,11.1805,F,safe,0,MUSTARD,foil,TI,FA,FAI_Lo,2.6199,NR,NR,NR,999.0000
244,6,34,347.1892,12.3243,F,safe,0,ORNAMENT,foil,F,CR,CR,1.7724,NR,NR,NR,999.0000
245,6,35,359.5479,9.1107,TI_2,safe,0,TRAY,auditorium,F,M,MI,1.1800,NR,NR,NR,999.0000
246,6,36,368.6929,9.2487,TI_4,safe,0,ROSE,volleyball_court,F,M,MI,2.8196,NR,NR,NR,999.0000
247,6,37,377.9761,11.3306,TO_2,safe,0,TOBACCO,iceberg,F,M,MI,2.4638,NR,NR,NR,999.0000
248,6,38,389.3411,10.5491,F,safe,0,BELL,foil,F,CR,CR,1.5952,NR,NR,NR,999.0000
249,6,39,399.9250,9.9165,TI_2,safe,0,SEAL,bedroom,TO,SM,SMI_Hi,2.0312,NR,NR,NR,999.0000
250,6,40,409.8670,11.2718,TI_4,safe,0,BOOT,catacomb,TI,H,HI_Lo,1.5905,NR,NR,NR,999.0000
251,6,41,421.1738,9.2697,TO_2,safe,0,BALLOON,fire_escape,F,M,MI,1.5863,NR,NR,NR,999.0000
252,6,42,430.4786,9.8890,TO_4,safe,0,CANARY,lido_deck,TO,H,HO_Lo,1.3889,NR,NR,NR,999.0000
