index,run,trial,onset,duration,cond,repType,repCount,word,pic,resp,respRT,ISIresp,ISIrespRT
1,1,1,10.0033,1.9988,WO,4,1,LIME,fountain,R,1.4596,NR,3.0000
2,1,2,22.0631,-10.0611,WI,4,1,PIANO,synagogue,R,1.6218,NR,3.0000
3,1,3,34.1189,-22.1178,WI,4,1,BONE,throne_room,R,1.9738,NR,3.0000
4,1,4,46.1748,-34.1728,WI,2,1,BUTTER,bakery,R,1.4604,NR,3.0000
5,1,5,58.2317,-46.2299,WO,4,1,HOSE,carrousel,R,1.5776,NR,3.0000
6,1,6,70.2889,-58.2876,WI,4,1,SOOT,ice_cream_parlor,UR,2.1431,NR,3.0000
7,1,7,82.3450,-70.3430,WO,4,1,FIDDLE,corn_field,R,2.6289,NR,3.0000
8,1,8,94.4024,-82.4008,WO,4,2,LIME,fountain,R,1.2821,NR,3.0000
9,1,9,106.4587,-94.4568,WI,4,1,SQUIRREL,television_studio,R,1.8158,NR,3.0000
10,1,10,118.5156,-106.5142,WO,2,1,SAIL,construction_site,R,1.9497,NR,3.0000
11,1,11,130.5723,-118.5705,WO,4,1,TABLE,park,R,2.2265,NR,3.0000
12,1,12,142.6290,-130.6269,WO,4,1,BANDIT,pasture,R,1.3750,NR,7.0504
13,1,13,154.6867,-142.6851,WI,4,2,PIANO,synagogue,R,1.7017,NR,3.0000
14,1,14,166.7432,-154.7411,WI,4,1,FORK,garage,R,2.2270,NR,6.8549
15,1,15,178.8001,-166.7994,WO,2,1,CANDLE,rope_bridge,R,2.5060,NR,3.0000
16,1,16,190.8564,-178.8556,WO,2,1,BUCKET,arch,R,1.9837,NR,3.0000
17,1,17,202.9122,-190.9113,WI,2,1,KALE,restaurant_kitchen,R,2.1547,NR,3.0000
18,1,18,214.9689,-202.9670,WO,2,1,KNIFE,marsh,R,2.7932,NR,3.0000
19,1,19,227.0255,-215.0248,WI,4,1,SNOW,parlor,R,1.9251,NR,3.0000
20,1,20,239.0812,-227.0788,WO,4,2,TABLE,park,R,1.1477,NR,3.0000
21,1,21,251.1390,-239.1377,WO,2,1,GEESE,greenhouse,R,2.1541,NR,3.0000
22,1,22,263.1956,-251.1946,WO,2,1,POTATO,gas_station,R,2.3753,NR,3.0000
23,1,23,275.2517,-263.2508,WI,4,2,FORK,garage,R,0.9814,NR,3.0000
24,1,24,287.3078,-275.3055,WO,4,1,SCOTCH,landing_deck,R,1.7064,NR,3.0000
25,1,25,299.3651,-287.3640,WI,4,2,SOOT,ice_cream_parlor,R,1.7836,NR,3.0000
26,1,26,311.4219,-299.4201,WI,4,2,BONE,throne_room,R,1.3815,NR,3.0000
27,1,27,323.4789,-311.4770,WO,2,1,HIGHWAY,boardwalk,R,1.7308,NR,3.0000
28,1,28,335.5363,-323.5356,WO,4,2,BANDIT,pasture,R,1.0645,NR,3.0000
29,1,29,347.5921,-335.5907,WI,2,1,STAPLER,fastfood_restaurant,R,1.6803,NR,3.0000
30,1,30,359.6486,-347.6475,WI,4,2,SNOW,parlor,R,1.7560,NR,3.0000
31,1,31,371.7047,-359.7038,WO,4,1,VIOLIN,office_building,R,2.4746,NR,3.0000
32,1,32,383.7607,-371.7597,WI,2,1,MAGICIAN,art_gallery,R,2.0499,NR,3.0000
33,1,33,395.8169,-383.8147,WI,4,2,SQUIRREL,television_studio,R,1.3893,NR,3.0000
34,1,34,407.8742,-395.8734,WO,4,2,VIOLIN,office_building,R,1.5232,NR,3.0000
35,1,35,419.9299,-407.9277,WI,4,1,SPONGE,bus_interior,R,1.9130,NR,3.0000
36,1,36,431.9873,-419.9862,WI,4,2,SPONGE,bus_interior,R,0.7343,NR,3.0000
37,1,37,444.0437,-432.0425,WI,2,1,NET,diner,R,1.5395,NR,3.0000
38,1,38,456.1004,-444.0987,WO,4,2,SCOTCH,landing_deck,R,1.6735,NR,3.0000
39,1,39,468.1574,-456.1566,WI,2,1,PLUG,hotel_room,R,1.8383,NR,3.0000
40,1,40,480.2134,-468.2113,WI,2,1,DAMSEL,apse,R,1.7662,NR,3.0000
41,1,41,492.2713,-480.2704,WO,4,2,FIDDLE,corn_field,R,1.4189,NR,3.0000
42,1,42,504.3272,-492.3252,WO,4,2,HOSE,carrousel,R,1.7131,NR,3.0000
43,2,19,10.0032,1.9980,WI,4,1,LAMP,game_room,R,1.9492,NR,3.0000
44,2,20,22.0654,-10.0639,WI,4,1,CLAM,chicken_coop,R,2.2123,NR,3.0000
45,2,21,34.1261,-22.1239,WI,4,1,VINE,operating_room,R,2.5355,NR,3.0000
46,2,22,46.1871,-34.1859,WO,4,1,MUFFIN,pond,R,2.6231,NR,3.0000
47,2,23,58.2471,-46.2452,WO,2,1,CANARY,hayfield,NR,999.0000,R,3.2381
48,2,24,70.3077,-58.3067,WI,2,1,FIRE,control_room,R,1.6572,NR,3.0000
49,2,25,82.3676,-70.3658,WO,4,1,ENVELOPE,rice_paddy,R,1.7418,NR,3.0000
50,2,26,94.4290,-82.4271,WI,4,1,WALNUT,riding_arena,R,1.6431,NR,3.0000
51,2,27,106.4897,-94.4885,WI,4,2,VINE,operating_room,R,1.3602,NR,3.0000
52,2,28,118.5500,-106.5484,WO,4,2,ENVELOPE,rice_paddy,R,1.1672,NR,3.0000
53,2,29,130.6110,-118.6090,WO,2,1,BALLOON,corral,R,2.1643,NR,3.0000
54,2,30,142.6718,-130.6707,WI,4,1,WALRUS,candy_store,R,1.9792,NR,3.0000
55,2,31,154.7325,-142.7316,WO,2,1,UMBRELLA,mosque,R,2.0538,NR,3.0000
56,2,32,166.7924,-154.7901,WI,2,1,CARROT,bowling_alley,R,1.8368,NR,3.0000
57,2,33,178.8537,-166.8523,WO,4,1,EMPEROR,cottage_garden,R,2.5708,NR,3.0000
58,2,34,190.9148,-178.9133,WI,4,2,LAMP,game_room,R,0.9675,NR,3.0000
59,2,35,202.9756,-190.9733,WI,2,1,ELEPHANT,courtroom,UR,2.8440,NR,3.0000
60,2,36,215.0373,-203.0361,WO,4,1,DESK,field_cultivated,R,2.4335,NR,3.0000
61,2,37,227.0975,-215.0960,WO,4,2,MUFFIN,pond,R,1.7360,NR,3.0000
62,2,38,239.1583,-227.1572,WI,4,1,PYTHON,galley,R,2.1009,NR,3.0000
63,2,39,251.2192,-239.2167,WI,2,1,SCREWDRIVER,shoe_shop,R,2.2332,NR,3.0000
64,2,40,263.2806,-251.2796,WO,4,2,EMPEROR,cottage_garden,R,1.2083,NR,3.0000
65,2,41,275.3412,-263.3398,WO,4,1,BEAVER,aqueduct,R,1.9321,NR,3.0000
66,2,42,287.4017,-275.3988,WI,2,1,TWEEZERS,bar,R,2.3469,NR,3.0000
67,2,43,299.4637,-287.4615,WO,4,2,BEAVER,aqueduct,R,1.2085,NR,3.0000
68,2,44,311.5254,-299.5246,WI,4,2,WALRUS,candy_store,R,1.2234,NR,3.0000
69,2,45,323.5852,-311.5834,WI,4,2,WALNUT,riding_arena,R,2.0360,NR,3.0000
70,2,46,335.6469,-323.6451,WO,4,1,SLIPPER,outhouse,R,1.9251,NR,3.0000
71,2,47,347.7080,-335.7069,WI,4,2,PYTHON,galley,R,1.5467,NR,3.0000
72,2,48,359.7682,-347.7670,WI,2,1,GLOBE,sauna,R,1.7832,NR,3.0000
73,2,49,371.8289,-359.8280,WO,2,1,MOUSE,botanical_garden,R,2.3413,NR,3.0000
74,2,50,383.8891,-371.8880,WI,2,1,DIAMOND,butchers_shop,R,2.2859,NR,3.0000
75,2,51,395.9495,-383.9477,WO,4,2,DESK,field_cultivated,R,1.7230,NR,3.0000
76,2,52,408.0105,-396.0089,WO,4,1,ASPARAGUS,oil_refinery,R,1.5530,NR,3.0000
77,2,53,420.0715,-408.0687,WI,4,1,FOX,elevator,R,2.0224,NR,3.0000
78,2,54,432.1334,-420.1316,WI,4,2,FOX,elevator,R,1.3449,NR,3.0000
79,2,55,444.1945,-432.1927,WO,2,1,BENCH,islet,R,2.3743,NR,3.0000
80,2,56,456.2560,-444.2539,WO,2,1,ORCHID,bridge,R,2.2058,NR,3.0000
81,2,57,468.3173,-456.3153,WI,4,2,CLAM,chicken_coop,R,1.2583,NR,3.0000
82,2,58,480.3786,-468.3773,WO,4,2,SLIPPER,outhouse,R,1.1706,NR,3.0000
83,2,59,492.4396,-480.4382,WO,2,1,ORNAMENT,dock,R,1.7962,NR,3.0000
84,2,60,504.5004,-492.4995,WO,4,2,ASPARAGUS,oil_refinery,R,1.1720,NR,3.0000
85,3,37,10.0014,2.0005,WI,4,1,RACQUET,dentists_office,R,2.2200,NR,3.0000
86,3,38,22.0663,-10.0643,WO,2,1,FENCE,palace,R,2.1287,NR,3.0000
87,3,39,175.0119,-163.0107,WI,2,1,ROCKER,attic,R,2.0499,NR,3.0000
88,3,40,187.0736,-175.0718,WI,4,1,TEETH,badminton_court,R,2.2312,NR,3.0000
89,3,41,199.1361,-187.1339,WO,2,1,HONEY,plaza,R,1.9169,NR,3.0000
90,3,42,211.1989,-199.1972,WO,4,1,SEAL,bamboo_forest,R,2.7373,NR,3.0000
91,3,43,223.2616,-211.2596,WO,4,1,CHEESE,castle,R,2.3439,NR,3.0000
92,3,44,235.3239,-223.3220,WI,4,1,OPIUM,bookstore,R,2.1876,NR,3.0000
93,3,45,247.3860,-235.3839,WI,4,1,DETECTIVE,reception,R,1.6993,NR,3.0000
94,3,46,259.4490,-247.4480,WI,4,1,MEDAL,playroom,R,1.7527,NR,3.0000
95,3,47,271.5103,-259.5085,WO,4,1,SCAB,crosswalk,R,1.4517,NR,3.0000
96,3,48,283.5728,-271.5706,WO,4,2,SEAL,bamboo_forest,R,1.1376,NR,3.0000
97,3,49,295.6356,-283.6333,WI,2,1,ROPE,living_room,R,1.6325,NR,3.0000
98,3,50,307.6984,-295.6971,WO,4,1,PASSPORT,observatory,R,2.0686,NR,3.0000
99,3,51,319.7605,-307.7590,WO,4,1,QUILT,motel,R,1.8496,NR,3.0000
100,3,52,331.8223,-319.8213,WI,4,2,OPIUM,bookstore,R,1.5929,NR,3.0000
101,3,53,343.8844,-331.8825,WI,4,2,TEETH,badminton_court,R,1.4529,NR,3.0000
102,3,54,355.9467,-343.9448,WO,2,1,STOMACH,ice_shelf,R,2.1534,NR,3.0000
103,3,55,368.0090,-356.0073,WI,4,2,DETECTIVE,reception,R,1.2715,NR,3.0000
104,3,56,380.0716,-368.0705,WI,2,1,WOLF,swimming_pool,R,2.0286,NR,3.0000
105,3,57,392.1331,-380.1324,WO,2,1,SHOWER,oilrig,R,2.5307,NR,3.0000
106,3,58,404.1944,-392.1922,WI,2,1,HELMET,laundromat,R,2.6553,NR,3.0000
107,3,59,416.2571,-404.2557,WO,2,1,DAISY,mausoleum,R,2.3745,NR,3.0000
108,3,60,428.3192,-416.3183,WI,4,1,BARREL,cloister,R,2.0829,NR,3.0000
109,3,61,440.3812,-428.3794,WO,4,1,GARBAGE,lift_bridge,R,2.3193,NR,3.0000
110,3,62,452.4436,-440.4422,WI,4,2,RACQUET,dentists_office,R,1.6841,NR,3.0000
111,3,63,464.5060,-452.5044,WI,4,1,PAN,limousine_interior,R,2.0829,NR,3.0000
112,3,64,476.5682,-464.5671,WO,4,2,PASSPORT,observatory,R,1.2871,NR,3.0000
113,3,65,488.6300,-476.6277,WI,2,1,SNAIL,drugstore,R,1.9251,NR,3.0000
114,3,66,500.6934,-488.6922,WO,4,2,QUILT,motel,R,1.3377,NR,3.0000
115,3,67,512.7552,-500.7533,WI,4,2,PAN,limousine_interior,R,1.6800,NR,3.0000
116,3,68,524.8180,-512.8165,WO,4,1,NECKLACE,crevasse,R,1.9243,NR,3.0000
117,3,69,536.8801,-524.8786,WI,4,2,MEDAL,playroom,R,1.5610,NR,3.0000
118,3,70,548.9421,-536.9398,WO,4,2,CHEESE,castle,R,1.8467,NR,3.0000
119,3,71,561.0049,-549.0039,WO,2,1,BROWNIE,house,NR,999.0000,R,3.1521
120,3,72,573.0662,-561.0645,WO,4,2,NECKLACE,crevasse,R,1.2011,NR,3.0000
121,3,73,585.1291,-573.1270,WI,2,1,PIE,natural_history_museum,R,2.3518,NR,3.0000
122,3,74,597.1920,-585.1905,WO,4,2,GARBAGE,lift_bridge,R,1.6277,NR,3.0000
123,3,75,609.2540,-597.2527,WO,4,2,SCAB,crosswalk,R,1.6166,NR,3.0000
124,3,76,621.3167,-609.3149,WI,4,2,BARREL,cloister,R,1.5680,NR,3.0000
125,3,77,633.3789,-621.3768,WO,2,1,ALLIGATOR,forest_path,R,1.5085,NR,3.0000
126,3,78,645.4423,-633.4408,WI,2,1,BANANA,cockpit,R,1.7853,NR,3.0000
127,4,55,10.0024,1.9984,WI,2,1,CEREAL,amusement_arcade,R,1.8810,NR,3.0000
128,4,56,22.0611,-10.0598,WO,2,1,YACHT,orchard,R,2.4800,NR,3.0000
129,4,57,34.1181,-22.1158,WO,2,1,QUAIL,heliport,R,1.6276,NR,3.0000
130,4,58,46.1763,-34.1750,WI,2,1,SCISSORS,ball_pit,R,1.8592,NR,3.0000
131,4,59,58.2333,-46.2313,WO,4,1,QUARTER,kasbah,R,2.3212,NR,3.0000
132,4,60,70.2916,-58.2900,WI,4,1,RICE,optician,R,1.8525,NR,3.0000
133,4,61,82.3491,-70.3468,WI,2,1,PUMPKIN,auto_factory,R,2.1650,NR,3.0000
134,4,62,94.4074,-82.4062,WO,4,1,PENNY,igloo,R,2.1191,NR,3.0000
135,4,63,106.4645,-94.4625,WO,4,1,DRUM,driving_range,R,2.2746,NR,3.0000
136,4,64,118.5223,-106.5212,WI,4,2,RICE,optician,R,1.2545,NR,3.0000
137,4,65,130.5798,-118.5788,WO,2,1,CANE,amusement_park,UR,2.0285,NR,3.0000
138,4,66,142.6366,-130.6358,WO,4,1,HAMMER,forest_needleleaf,R,1.7052,NR,3.0000
139,4,67,154.6936,-142.6924,WI,4,1,LETTUCE,closet,R,2.1899,NR,3.0000
140,4,68,166.7507,-154.7494,WO,4,1,HAWK,ruin,R,1.8873,NR,3.0000
141,4,69,178.8078,-166.8070,WI,4,1,TORNADO,boxing_ring,R,2.1491,NR,3.0000
142,4,70,190.8645,-178.8628,WO,4,2,HAWK,ruin,R,1.3711,NR,3.0000
143,4,71,202.9220,-190.9211,WI,2,1,HATCHET,kitchen,R,1.9041,NR,3.0000
144,4,72,214.9790,-202.9778,WI,2,1,TIGER,bedroom,R,2.1417,NR,3.0000
145,4,73,227.0371,-215.0361,WI,4,1,THONG,biology_laboratory,R,2.3305,NR,3.0000
146,4,74,239.0940,-227.0929,WO,2,1,SHRIMP,badlands,R,2.0807,NR,3.0000
147,4,75,251.1511,-239.1490,WI,4,1,SHEEP,car_interior,R,2.2629,NR,3.0000
148,4,76,263.2095,-251.2077,WO,2,1,DOUGHNUT,river,R,2.2766,NR,3.0000
149,4,77,275.2678,-263.2662,WI,4,1,CHOCOLATE,beauty_salon,R,1.6747,NR,3.0000
150,4,78,287.3253,-275.3236,WI,4,2,CHOCOLATE,beauty_salon,R,1.1665,NR,3.0000
151,4,79,299.3833,-287.3815,WI,2,1,TOBACCO,clothing_store,R,1.9300,NR,3.0000
152,4,80,311.4410,-299.4397,WO,4,1,CANNON,manufactured_home,R,2.0919,NR,3.0000
153,4,81,323.4981,-311.4973,WO,4,1,TURTLE,butte,R,2.7026,NR,3.0000
154,4,82,335.5553,-323.5530,WI,2,1,VELVET,assembly_line,R,1.6976,NR,3.0000
155,4,83,347.6134,-335.6123,WI,4,2,SHEEP,car_interior,R,1.6558,NR,3.0000
156,4,84,359.6710,-347.6701,WO,4,2,CANNON,manufactured_home,R,2.0063,NR,3.0000
157,4,85,371.7277,-359.7269,WI,4,1,SADDLE,ice_skating_rink,R,1.8985,NR,3.0000
158,4,86,383.7843,-371.7826,WI,4,2,THONG,biology_laboratory,R,1.5326,NR,3.0000
159,4,87,395.8425,-383.8416,WI,4,2,SADDLE,ice_skating_rink,R,1.8981,NR,3.0000
160,4,88,407.8994,-395.8983,WO,2,1,ICICLE,balcony,R,2.6881,NR,3.0000
161,4,89,419.9569,-407.9538,WI,4,2,TORNADO,boxing_ring,R,1.1718,NR,3.0000
162,4,90,432.0160,-420.0139,WO,4,2,QUARTER,kasbah,R,1.5872,NR,3.0000
163,4,91,444.0739,-432.0728,WO,4,2,PENNY,igloo,R,1.3186,NR,3.0000
164,4,92,456.1312,-444.1304,WO,4,2,TURTLE,butte,R,1.4284,NR,3.0000
165,4,93,468.1881,-456.1869,WI,4,2,LETTUCE,closet,R,1.6752,NR,3.0000
166,4,94,480.2458,-468.2435,WO,4,2,DRUM,driving_range,R,1.7533,NR,3.0000
167,4,95,492.3043,-480.3025,WO,2,1,SWORD,mountain_snowy,UR,2.6451,NR,3.0000
168,4,96,504.3620,-492.3604,WO,4,2,HAMMER,forest_needleleaf,R,2.2111,NR,3.0000
169,5,73,10.0029,1.9987,WI,2,1,SOCK,toyshop,R,2.0792,NR,3.0000
170,5,74,22.0637,-10.0623,WO,4,1,TROLLEY,picnic_area,R,2.1351,NR,3.0000
171,5,75,34.1230,-22.1208,WI,4,1,BOWL,lecture_room,R,2.6917,NR,3.0000
172,5,76,46.1826,-34.1819,WI,4,1,SCROLL,cubicle,R,2.5858,NR,3.0000
173,5,77,58.2415,-46.2405,WI,4,1,ARMOR,kindergarden_classroom,R,2.9826,NR,3.0000
174,5,78,70.3000,-58.2977,WO,2,1,OWL,nuclear_power_plant,R,2.0432,NR,3.0000
175,5,79,82.3597,-70.3574,WO,4,1,CLARINET,field_wild,R,2.6085,NR,3.0000
176,5,80,94.4200,-82.4190,WI,4,2,ARMOR,kindergarden_classroom,R,1.6395,NR,3.0000
177,5,81,106.4786,-94.4765,WI,4,1,SOAP,brewery,R,1.8529,NR,3.0000
178,5,82,118.5387,-106.5377,WO,2,1,WRENCH,beach,R,1.9383,NR,3.0000
179,5,83,130.5972,-118.5959,WO,2,1,MOON,athletic_field,R,1.7845,NR,3.0000
180,5,84,142.6559,-130.6545,WO,4,1,SOUP,creek,R,2.6932,NR,3.0000
181,5,85,154.7152,-142.7137,WI,2,1,TELEGRAPH,restaurant,R,2.0018,NR,3.0000
182,5,86,166.7741,-154.7717,WO,4,2,TROLLEY,picnic_area,R,1.7587,NR,3.0000
183,5,87,178.8349,-166.8332,WI,4,1,TROPHY,archive,R,1.8853,NR,3.0000
184,5,88,190.8941,-178.8932,WI,4,1,EAGLE,ballroom,R,1.8817,NR,3.0000
185,5,89,202.9529,-190.9514,WI,4,2,SCROLL,cubicle,R,1.6478,NR,3.0000
186,5,90,215.0123,-203.0107,WO,4,1,SPATULA,mountain,R,2.2205,NR,3.0000
187,5,91,227.0715,-215.0707,WI,2,1,ROCK,dorm_room,R,2.2452,NR,3.0000
188,5,92,239.1303,-227.1295,WI,4,2,EAGLE,ballroom,R,1.7286,NR,3.0000
189,5,93,251.1886,-239.1873,WI,4,1,CAGE,locker_room,R,1.9464,NR,3.0000
190,5,94,263.2476,-251.2467,WO,4,1,HOOK,bayou,R,2.8849,NR,3.0000
191,5,95,275.3067,-263.3052,WO,4,2,HOOK,bayou,R,2.3567,NR,3.0000
192,5,96,287.3663,-275.3646,WI,2,1,OTTER,art_studio,R,1.9739,NR,3.0000
193,5,97,299.4263,-287.4244,WO,2,1,BRACELET,power_plant,R,2.0530,NR,3.0000
194,5,98,311.4857,-299.4846,WI,2,1,CHICKEN,florist_shop,R,2.3786,NR,3.0000
195,5,99,323.5444,-311.5435,WI,4,2,BOWL,lecture_room,R,1.9792,NR,3.0000
196,5,100,335.6031,-323.6015,WO,2,1,ZIPPER,bullring,R,2.5210,NR,3.0000
197,5,101,347.6624,-335.6614,WO,2,1,PEDAL,highway,R,1.8265,NR,3.0000
198,5,102,359.7218,-347.7202,WI,2,1,CROWN,burial_chamber,R,2.2571,NR,3.0000
199,5,103,371.7810,-359.7799,WI,4,2,TROPHY,archive,R,1.8840,NR,3.0000
200,5,104,383.8396,-371.8384,WO,4,2,SOUP,creek,R,2.3305,NR,3.0000
201,5,105,395.8984,-383.8966,WO,4,2,CLARINET,field_wild,R,2.3165,NR,3.0000
202,5,106,407.9580,-395.9562,WO,4,1,CAMEL,iceberg,NR,999.0000,R,3.3149
203,5,107,420.0179,-408.0163,WI,2,1,MAP,office,R,2.0839,NR,3.0000
204,5,108,432.0772,-420.0754,WO,4,1,MEDICINE,amphitheater,R,2.3803,NR,3.0000
205,5,109,444.1365,-432.1353,WI,4,2,SOAP,brewery,R,1.1382,NR,3.0000
206,5,110,456.1962,-444.1950,WO,4,2,MEDICINE,amphitheater,R,1.2305,NR,3.0000
207,5,111,468.2551,-456.2520,WO,4,2,SPATULA,mountain,R,2.5616,NR,3.0000
208,5,112,480.3164,-468.3152,WO,2,1,BOAT,boathouse,R,2.2138,NR,3.0000
209,5,113,492.3755,-480.3747,WI,4,2,CAGE,locker_room,R,2.6369,NR,3.0000
210,5,114,504.4342,-492.4335,WO,4,2,CAMEL,iceberg,R,1.5881,NR,3.0000
211,6,91,10.0031,1.9990,WO,4,1,DRUG,hot_spring,R,1.9986,NR,3.0000
212,6,92,22.0670,-10.0648,WI,4,1,ANT,kennel,R,2.5475,NR,3.0000
213,6,93,34.1289,-22.1277,WO,4,1,TRIBE,pavilion,R,2.6736,NR,3.0000
214,6,94,46.1891,-34.1879,WO,4,1,STOOL,hot_tub,R,2.8322,NR,3.0000
215,6,95,58.2502,-46.2487,WI,4,1,EYE,banquet_hall,NR,999.0000,R,3.1427
216,6,96,70.3108,-58.3088,WI,4,1,NIGHTGOWN,aquarium,R,1.2068,NR,3.0000
217,6,97,82.3729,-70.3711,WO,4,1,WITCH,beach,R,1.9119,NR,3.0000
218,6,98,94.4339,-82.4331,WI,4,1,CRADLE,stage,R,2.5280,NR,3.0000
219,6,99,106.4954,-94.4936,WI,2,1,VODKA,casino,R,2.7513,NR,3.0000
220,6,100,118.5572,-106.5551,WO,2,1,FLASK,patio,R,2.2349,NR,3.0000
221,6,101,130.6190,-118.6168,WI,2,1,ROSE,auditorium,R,1.4330,NR,3.0000
222,6,102,142.6810,-130.6795,WO,2,1,ACCORDIAN,ocean,R,2.1322,NR,3.0000
223,6,103,154.7419,-142.7400,WO,2,1,DOVE,lock_chamber,R,2.8113,NR,3.0000
224,6,104,166.8041,-154.8019,WO,2,1,OATMEAL,harbor,R,2.9436,NR,3.0000
225,6,105,178.8657,-166.8641,WI,2,1,STORK,museum,R,2.2846,NR,3.0000
226,6,106,190.9265,-178.9243,WO,2,1,BOOT,basketball_court,R,2.3540,NR,3.0000
227,6,107,202.9887,-190.9875,WI,4,1,SALAD,home_office,R,2.2961,NR,3.0000
228,6,108,215.0494,-203.0476,WO,2,1,ARROW,canyon,R,1.4607,NR,3.0000
229,6,109,227.1108,-215.1090,WO,4,1,JUGGLER,cabin,R,1.6656,NR,3.0000
230,6,110,239.1725,-227.1715,WI,2,1,SUNBURN,gymnasium,R,2.1611,NR,3.0000
231,6,111,251.2331,-239.2310,WO,4,2,WITCH,beach,R,1.0032,NR,3.0000
232,6,112,263.2953,-251.2941,WO,4,2,JUGGLER,cabin,R,0.9706,NR,3.0000
233,6,113,275.3558,-263.3544,WI,4,1,MANURE,cafeteria,R,2.7048,NR,3.0000
234,6,114,287.4169,-275.4153,WO,4,2,STOOL,hot_tub,R,1.8182,NR,3.0000
235,6,115,299.4785,-287.4772,WI,4,2,NIGHTGOWN,aquarium,R,1.7316,NR,3.0000
236,6,116,311.5395,-299.5374,WI,4,2,EYE,banquet_hall,R,2.2665,NR,3.0000
237,6,117,323.6016,-311.5999,WI,4,2,ANT,kennel,R,2.4587,NR,3.0000
238,6,118,335.6636,-323.6621,WO,4,1,LAMB,hotel,NR,999.0000,R,3.3037
239,6,119,347.7247,-335.7236,WO,4,1,RUDDER,excavation,R,2.0627,NR,3.0000
240,6,120,359.7857,-347.7844,WI,4,2,CRADLE,stage,R,2.3893,NR,3.0000
241,6,121,371.8464,-359.8447,WI,2,1,POSTER,baggage_claim,NR,999.0000,R,3.1440
242,6,122,383.9081,-371.9068,WI,4,2,MANURE,cafeteria,R,2.0004,NR,3.0000
243,6,123,395.9689,-383.9676,WO,4,2,TRIBE,pavilion,R,2.0721,NR,3.0000
244,6,124,408.0298,-396.0281,WI,4,1,EASEL,bistro,R,2.9116,NR,3.0000
245,6,125,420.0915,-408.0894,WO,4,2,LAMB,hotel,R,2.0622,NR,3.0000
246,6,126,432.1532,-420.1506,WO,2,1,JACKET,barn,R,1.8241,NR,3.0000
247,6,127,444.2157,-432.2139,WO,4,2,DRUG,hot_spring,R,2.2811,NR,3.0000
248,6,128,456.2772,-444.2763,WI,4,2,EASEL,bistro,UR,2.3063,NR,3.0000
249,6,129,468.3377,-456.3357,WI,2,1,NOODLE,childs_room,R,2.4438,NR,3.0000
250,6,130,480.3997,-468.3973,WI,2,1,SAXOPHONE,jail_cell,R,2.1882,NR,3.0000
251,6,131,492.4616,-480.4605,WO,4,2,RUDDER,excavation,R,2.1127,NR,3.0000
252,6,132,504.5229,-492.5219,WI,4,2,SALAD,home_office,R,2.1212,NR,3.0000
253,7,109,10.0031,1.9979,WI,4,3,SPONGE,bus_interior,R,1.5785,NR,3.0000
254,7,110,22.0680,-10.0670,WI,4,3,PIANO,synagogue,R,1.5997,NR,3.0000
255,7,111,34.1303,-22.1295,WI,4,3,BONE,throne_room,R,1.0521,NR,3.0000
256,7,112,46.1917,-34.1901,WO,2,2,GEESE,greenhouse,R,2.1620,NR,3.0000
257,7,113,58.2544,-46.2525,WO,2,2,SAIL,construction_site,NR,2.5156,NR,3.0000
258,7,114,70.3170,-58.3153,WO,2,2,CANDLE,rope_bridge,R,1.9492,NR,3.0000
259,7,115,82.3793,-70.3784,WI,4,3,FORK,garage,R,1.5948,NR,3.0000
260,7,116,94.4417,-82.4398,WO,4,3,FIDDLE,corn_field,R,1.0619,NR,3.0000
261,7,117,106.5046,-94.5031,WI,4,3,SNOW,parlor,NR,999.0000,R,3.0293
262,7,118,118.5673,-106.5660,WO,4,3,HOSE,carrousel,R,1.2963,NR,3.0000
263,7,119,130.6293,-118.6275,WO,4,3,TABLE,park,R,2.1168,NR,3.0000
264,7,120,142.6919,-130.6900,WI,2,2,DAMSEL,apse,R,1.1707,NR,3.0000
265,7,121,154.7552,-142.7538,WO,2,2,HIGHWAY,boardwalk,R,2.3427,NR,3.0000
266,7,122,166.8173,-154.8159,WI,2,2,BUTTER,bakery,R,1.3239,NR,3.0000
267,7,123,178.8800,-166.8790,WO,4,4,HOSE,carrousel,NR,999.0000,NR,3.0000
268,7,124,190.9419,-178.9406,WO,2,2,BUCKET,arch,R,0.3051,NR,3.0000
269,7,125,203.0040,-191.0024,WI,4,3,SQUIRREL,television_studio,R,1.4121,NR,3.0000
270,7,126,215.0669,-203.0646,WO,4,3,LIME,fountain,R,1.4122,NR,3.0000
271,7,127,227.1299,-215.1287,WI,4,4,SNOW,parlor,R,1.8405,NR,3.0000
272,7,128,239.1925,-227.1917,WO,4,3,VIOLIN,office_building,R,1.4960,NR,3.0000
273,7,129,251.2544,-239.2535,WI,2,2,STAPLER,fastfood_restaurant,R,1.4340,NR,3.0000
274,7,130,263.3161,-251.3139,WO,4,3,SCOTCH,landing_deck,R,1.2481,NR,3.0000
275,7,131,275.3798,-263.3789,WO,2,2,POTATO,gas_station,R,1.2220,NR,3.0000
276,7,132,287.4415,-275.4406,WI,2,2,KALE,restaurant_kitchen,R,1.2740,NR,3.0000
277,7,133,299.5034,-287.5025,WI,4,4,FORK,garage,R,0.8085,NR,3.0000
278,7,134,311.5653,-299.5638,WI,2,2,NET,diner,R,2.3959,NR,3.0000
279,7,135,323.6277,-311.6262,WO,4,4,VIOLIN,office_building,R,0.9375,NR,3.0000
280,7,136,335.6908,-323.6886,WI,4,3,SOOT,ice_cream_parlor,R,0.8706,NR,3.0000
281,7,137,347.7539,-335.7523,WO,2,2,KNIFE,marsh,R,1.6515,NR,3.0000
282,7,138,359.8169,-347.8147,WI,4,4,SQUIRREL,television_studio,R,1.0318,NR,3.0000
283,7,139,371.8802,-359.8783,WI,2,2,PLUG,hotel_room,R,1.6398,NR,3.0000
284,7,140,383.9432,-371.9416,WO,4,4,FIDDLE,corn_field,R,0.3563,NR,3.0000
285,7,141,396.0063,-384.0048,WI,4,4,PIANO,synagogue,R,1.5764,NR,3.0000
286,7,142,408.0687,-396.0680,WI,4,4,SPONGE,bus_interior,R,1.5179,NR,3.0000
287,7,143,420.1309,-408.1298,WO,4,3,BANDIT,pasture,R,1.3311,NR,3.0000
288,7,144,432.1931,-420.1912,WO,4,4,LIME,fountain,R,1.4816,NR,3.0000
289,7,145,444.2566,-432.2548,WI,2,2,MAGICIAN,art_gallery,R,1.1900,NR,3.0000
290,7,146,456.3199,-444.3189,WO,4,4,TABLE,park,R,1.2270,NR,3.0000
291,7,147,468.3819,-456.3799,WI,4,4,BONE,throne_room,R,1.2890,NR,3.0000
292,7,148,480.4453,-468.4435,WO,4,4,BANDIT,pasture,R,1.0365,NR,3.0000
293,7,149,492.5079,-480.5066,WO,4,4,SCOTCH,landing_deck,R,1.4350,NR,3.0000
294,7,150,504.5702,-492.5680,WI,4,4,SOOT,ice_cream_parlor,R,1.0561,NR,3.0000
295,8,127,10.0036,1.9979,WI,4,3,WALRUS,candy_store,R,1.4002,NR,3.0000
296,8,128,22.0668,-10.0646,WO,4,3,EMPEROR,cottage_garden,R,2.9581,NR,3.0000
297,8,129,34.1287,-22.1277,WO,4,3,DESK,field_cultivated,R,1.4515,NR,3.0000
298,8,130,46.1889,-34.1875,WI,2,2,CARROT,bowling_alley,R,1.2400,NR,3.0000
299,8,131,58.2493,-46.2482,WI,4,3,PYTHON,galley,R,0.9594,NR,3.0000
300,8,132,70.3100,-58.3080,WI,2,2,SCREWDRIVER,shoe_shop,R,1.1593,NR,3.0000
301,8,133,82.3711,-70.3701,WO,2,2,UMBRELLA,mosque,R,1.3019,NR,3.0000
302,8,134,94.4312,-82.4297,WO,2,2,BALLOON,corral,R,1.6601,NR,3.0000
303,8,135,106.4919,-94.4907,WO,4,3,ASPARAGUS,oil_refinery,R,1.1125,NR,3.0000
304,8,136,118.5521,-106.5509,WI,4,4,WALRUS,candy_store,R,1.0222,NR,3.0000
305,8,137,130.6128,-118.6116,WO,4,3,ENVELOPE,rice_paddy,R,0.8711,NR,3.0000
306,8,138,142.6732,-130.6718,WO,4,4,ASPARAGUS,oil_refinery,R,0.7957,NR,3.0000
307,8,139,154.7343,-142.7321,WO,4,3,SLIPPER,outhouse,R,0.9536,NR,3.0000
308,8,140,166.7957,-154.7936,WI,4,3,LAMP,game_room,R,2.2860,NR,3.0000
309,8,141,178.8571,-166.8553,WO,4,3,BEAVER,aqueduct,R,1.3717,NR,3.0000
310,8,142,190.9186,-178.9169,WI,2,2,ELEPHANT,courtroom,R,1.0898,NR,3.0000
311,8,143,202.9794,-190.9773,WI,4,3,CLAM,chicken_coop,R,0.7189,NR,3.0000
312,8,144,215.0413,-203.0386,WI,4,4,CLAM,chicken_coop,R,1.1483,NR,3.0000
313,8,145,227.1034,-215.1018,WO,4,4,ENVELOPE,rice_paddy,R,0.8900,NR,3.0000
314,8,146,239.1642,-227.1634,WI,4,4,PYTHON,galley,R,0.9627,NR,3.0000
315,8,147,251.2241,-239.2221,WO,4,4,EMPEROR,cottage_garden,R,1.6126,NR,3.0000
316,8,148,263.2853,-251.2830,WO,4,4,SLIPPER,outhouse,R,0.7701,NR,3.0000
317,8,149,275.3474,-263.3457,WI,4,3,VINE,operating_room,R,0.9500,NR,3.0000
318,8,150,287.4083,-275.4073,WI,4,3,WALNUT,riding_arena,R,1.3635,NR,3.0000
319,8,151,299.4689,-287.4659,WO,4,3,MUFFIN,pond,R,0.8427,NR,3.0000
320,8,152,311.5318,-299.5308,WO,2,2,BENCH,islet,R,2.2693,NR,3.0000
321,8,153,323.5924,-311.5909,WI,4,3,FOX,elevator,R,1.5616,NR,3.0000
322,8,154,335.6535,-323.6519,WI,2,2,GLOBE,sauna,R,1.5255,NR,3.0000
323,8,155,347.7145,-335.7137,WO,2,2,ORCHID,bridge,R,1.2179,NR,3.0000
324,8,156,359.7747,-347.7727,WI,4,4,LAMP,game_room,R,1.7371,NR,3.0000
325,8,157,371.8366,-359.8348,WO,2,2,MOUSE,botanical_garden,R,2.0445,NR,3.0000
326,8,158,383.8979,-371.8965,WI,2,2,TWEEZERS,bar,R,1.2034,NR,3.0000
327,8,159,395.9591,-383.9571,WO,4,4,BEAVER,aqueduct,R,1.0871,NR,3.0000
328,8,160,408.0203,-396.0185,WO,2,2,CANARY,hayfield,R,1.2064,NR,3.0000
329,8,161,420.0814,-408.0796,WO,4,4,MUFFIN,pond,R,0.9307,NR,3.0000
330,8,162,432.1431,-420.1419,WI,4,4,FOX,elevator,R,1.3445,NR,3.0000
331,8,163,444.2039,-432.2022,WI,2,2,FIRE,control_room,NR,999.0000,R,3.4575
332,8,164,456.2669,-444.2654,WO,2,2,ORNAMENT,dock,R,1.1074,NR,3.0000
333,8,165,468.3281,-456.3269,WO,4,4,DESK,field_cultivated,R,0.8095,NR,3.0000
334,8,166,480.3899,-468.3880,WI,4,4,VINE,operating_room,R,1.2549,NR,3.0000
335,8,167,492.4517,-480.4510,WI,4,4,WALNUT,riding_arena,R,0.9634,NR,3.0000
336,8,168,504.5119,-492.5105,WI,2,2,DIAMOND,butchers_shop,R,1.8761,NR,3.0000
337,9,145,10.0046,1.9972,WO,4,3,PASSPORT,observatory,R,1.9390,NR,3.0000
338,9,146,22.0748,-10.0731,WI,4,3,PAN,limousine_interior,R,2.1766,NR,3.0000
339,9,147,34.1419,-22.1402,WO,2,2,ALLIGATOR,forest_path,R,1.0765,NR,3.0000
340,9,148,46.2094,-34.2075,WI,2,2,HELMET,laundromat,R,0.8822,NR,3.0000
341,9,149,58.2768,-46.2760,WI,4,3,DETECTIVE,reception,R,1.0157,NR,3.0000
342,9,150,70.3434,-58.3414,WI,2,2,ROPE,living_room,R,1.5732,NR,3.0000
343,9,151,82.4112,-70.4092,WO,2,2,SHOWER,oilrig,R,1.2026,NR,3.0000
344,9,152,94.4787,-82.4775,WI,4,4,DETECTIVE,reception,R,0.7828,NR,3.0000
345,9,153,106.5462,-94.5443,WI,4,3,RACQUET,dentists_office,R,1.5799,NR,3.0000
346,9,154,118.6136,-106.6117,WI,2,2,BANANA,cockpit,R,1.0346,NR,3.0000
347,9,155,130.6817,-118.6795,WO,2,2,STOMACH,ice_shelf,R,1.1605,NR,3.0000
348,9,156,142.7493,-130.7472,WI,4,3,MEDAL,playroom,R,1.5016,NR,3.0000
349,9,157,154.8170,-142.8159,WI,2,2,ROCKER,attic,R,1.2516,NR,3.0000
350,9,158,166.8841,-154.8834,WO,4,3,SEAL,bamboo_forest,R,1.2487,NR,3.0000
351,9,159,178.9503,-166.9490,WI,4,4,PAN,limousine_interior,R,0.9099,NR,3.0000
352,9,160,191.0180,-179.0160,WI,2,2,SNAIL,drugstore,R,1.0740,NR,3.0000
353,9,161,203.0860,-191.0848,WO,2,2,FENCE,palace,R,0.9936,NR,3.0000
354,9,162,215.1530,-203.1507,WO,2,2,DAISY,mausoleum,R,1.3401,NR,3.0000
355,9,163,227.2206,-215.2190,WI,4,3,TEETH,badminton_court,R,1.3602,NR,3.0000
356,9,164,239.2877,-227.2858,WO,4,4,SEAL,bamboo_forest,R,0.9730,NR,3.0000
357,9,165,251.3562,-239.3550,WI,4,4,TEETH,badminton_court,R,0.8987,NR,3.0000
358,9,166,263.4234,-251.4220,WO,2,2,HONEY,plaza,R,0.4864,NR,3.0000
359,9,167,275.4905,-263.4895,WO,4,3,GARBAGE,lift_bridge,R,1.8930,NR,3.0000
360,9,168,287.5575,-275.5550,WO,4,4,GARBAGE,lift_bridge,R,0.8919,NR,3.0000
361,9,169,299.6256,-287.6241,WI,4,3,BARREL,cloister,R,1.4382,NR,3.0000
362,9,170,311.6930,-299.6920,WO,4,3,SCAB,crosswalk,R,1.1458,NR,3.0000
363,9,171,323.7602,-311.7582,WO,4,4,SCAB,crosswalk,R,0.9378,NR,3.0000
364,9,172,335.8290,-323.8269,WO,4,3,NECKLACE,crevasse,R,0.8148,NR,3.0000
365,9,173,347.8967,-335.8952,WI,4,3,OPIUM,bookstore,R,1.1881,NR,3.0000
366,9,174,359.9638,-347.9624,WO,4,3,QUILT,motel,R,1.9102,NR,3.0000
367,9,175,372.0327,-360.0309,WO,4,4,NECKLACE,crevasse,R,1.6649,NR,3.0000
368,9,176,384.1015,-372.0999,WO,4,4,QUILT,motel,R,1.6924,NR,3.0000
369,9,177,396.1690,-384.1681,WI,4,4,BARREL,cloister,R,0.6122,NR,3.0000
370,9,178,408.2359,-396.2339,WO,4,4,PASSPORT,observatory,R,1.0908,NR,3.0000
371,9,179,420.3038,-408.3027,WI,2,2,WOLF,swimming_pool,R,1.2535,NR,3.0000
372,9,180,432.3712,-420.3691,WO,4,3,CHEESE,castle,R,1.7206,NR,3.0000
373,9,181,444.4388,-432.4368,WI,4,4,RACQUET,dentists_office,R,1.0470,NR,3.0000
374,9,182,456.5065,-444.5056,WO,2,2,BROWNIE,house,R,1.9073,NR,3.0000
375,9,183,468.5731,-456.5715,WI,4,4,OPIUM,bookstore,R,1.6112,NR,3.0000
376,9,184,480.6402,-468.6395,WI,2,2,PIE,natural_history_museum,R,1.6584,NR,3.0000
377,9,185,492.7074,-480.7065,WO,4,4,CHEESE,castle,R,1.1048,NR,3.0000
378,9,186,504.7742,-492.7723,WI,4,4,MEDAL,playroom,R,1.7636,NR,3.0000
379,10,163,10.0038,1.9971,WO,4,3,CANNON,manufactured_home,R,1.0665,NR,3.0000
380,10,164,22.0741,-10.0724,WI,4,3,TORNADO,boxing_ring,R,0.9511,NR,3.0000
381,10,165,34.1431,-22.1410,WI,4,3,SADDLE,ice_skating_rink,R,1.0614,NR,3.0000
382,10,166,46.2118,-34.2111,WO,2,2,CANE,amusement_park,R,1.0260,NR,3.0000
383,10,167,58.2793,-46.2783,WI,4,3,CHOCOLATE,beauty_salon,R,1.0218,NR,3.0000
384,10,168,70.3478,-58.3464,WI,4,3,THONG,biology_laboratory,R,0.9487,NR,3.0000
385,10,169,82.4157,-70.4144,WI,2,2,TIGER,bedroom,R,1.8019,NR,3.0000
386,10,170,94.4844,-82.4835,WO,2,2,QUAIL,heliport,R,1.0691,NR,3.0000
387,10,171,106.5517,-94.5498,WO,4,4,CANNON,manufactured_home,R,1.0343,NR,3.0000
388,10,172,118.6205,-106.6193,WO,2,2,DOUGHNUT,river,R,0.7945,NR,3.0000
389,10,173,130.6884,-118.6875,WI,2,2,TOBACCO,clothing_store,R,0.9400,NR,3.0000
390,10,174,142.7562,-130.7552,WO,4,3,PENNY,igloo,R,1.7694,NR,3.0000
391,10,175,154.8248,-142.8226,WO,4,3,HAMMER,forest_needleleaf,R,2.0407,NR,3.0000
392,10,176,166.8937,-154.8917,WI,2,2,VELVET,assembly_line,R,2.0636,NR,3.0000
393,10,177,178.9625,-166.9603,WO,4,3,QUARTER,kasbah,R,1.6622,NR,3.0000
394,10,178,191.0315,-179.0300,WO,4,3,HAWK,ruin,R,1.7880,NR,3.0000
395,10,179,203.0997,-191.0979,WI,4,3,SHEEP,car_interior,R,1.5841,NR,3.0000
396,10,180,215.1688,-203.1669,WO,2,2,SHRIMP,badlands,R,0.8987,NR,3.0000
397,10,181,227.2373,-215.2364,WI,4,4,SADDLE,ice_skating_rink,R,0.8401,NR,3.0000
398,10,182,239.3051,-227.3038,WI,2,2,HATCHET,kitchen,R,1.9124,NR,3.0000
399,10,183,251.3737,-239.3725,WO,4,4,PENNY,igloo,R,2.0560,NR,3.0000
400,10,184,263.4427,-251.4409,WI,4,3,RICE,optician,R,1.7869,NR,3.0000
401,10,185,275.5120,-263.5105,WO,4,3,DRUM,driving_range,R,1.1431,NR,3.0000
402,10,186,287.5803,-275.5786,WI,4,3,LETTUCE,closet,R,1.7052,NR,3.0000
403,10,187,299.6491,-287.6472,WI,4,4,THONG,biology_laboratory,R,1.7235,NR,3.0000
404,10,188,311.7183,-299.7174,WO,4,3,TURTLE,butte,R,1.8859,NR,3.0000
405,10,189,323.7861,-311.7853,WI,4,4,SHEEP,car_interior,R,1.5067,NR,3.0000
406,10,190,335.8542,-323.8525,WO,2,2,ICICLE,balcony,R,1.9085,NR,3.0000
407,10,191,347.9231,-335.9217,WO,4,4,HAWK,ruin,R,0.7907,NR,3.0000
408,10,192,359.9924,-347.9907,WI,2,2,CEREAL,amusement_arcade,R,1.8421,NR,3.0000
409,10,193,372.0613,-360.0590,WI,4,4,TORNADO,boxing_ring,R,2.1242,NR,3.0000
410,10,194,384.1306,-372.1298,WO,4,4,HAMMER,forest_needleleaf,R,1.4815,NR,3.0000
411,10,195,396.2007,-384.1991,WI,4,4,RICE,optician,R,2.2258,NR,3.0000
412,10,196,408.2691,-396.2681,WO,2,2,SWORD,mountain_snowy,R,1.9400,NR,3.0000
413,10,197,420.3374,-408.3362,WI,4,4,CHOCOLATE,beauty_salon,R,2.5958,NR,3.0000
414,10,198,432.4052,-420.4033,WI,2,2,SCISSORS,ball_pit,R,2.6047,NR,3.0000
415,10,199,444.4742,-432.4723,WO,4,4,DRUM,driving_range,R,0.8900,NR,3.0000
416,10,200,456.5437,-444.5418,WO,2,2,YACHT,orchard,R,0.9986,NR,3.0000
417,10,201,468.6123,-456.6102,WO,4,4,TURTLE,butte,R,2.4836,NR,3.0000
418,10,202,480.6817,-468.6799,WI,4,4,LETTUCE,closet,R,1.4443,NR,3.0000
419,10,203,492.7506,-480.7484,WI,2,2,PUMPKIN,auto_factory,R,1.9801,NR,3.0000
420,10,204,504.8198,-492.8178,WO,4,4,QUARTER,kasbah,R,1.8109,NR,3.0000
421,11,181,10.0027,1.9993,WI,4,3,SOAP,brewery,R,1.0178,NR,3.0000
422,11,182,22.0683,-10.0663,WO,4,3,CAMEL,iceberg,R,1.0260,NR,3.0000
423,11,183,34.1314,-22.1300,WO,2,2,MOON,athletic_field,R,1.9276,NR,3.0000
424,11,184,46.1934,-34.1922,WI,2,2,CHICKEN,florist_shop,R,1.0099,NR,3.0000
425,11,185,58.2553,-46.2539,WI,4,3,ARMOR,kindergarden_classroom,R,1.1060,NR,3.0000
426,11,186,70.3178,-58.3170,WI,4,3,CAGE,locker_room,R,2.1770,NR,3.0000
427,11,187,82.3793,-70.3777,WO,2,2,OWL,nuclear_power_plant,R,0.7262,NR,3.0000
428,11,188,94.4418,-82.4397,WI,4,3,EAGLE,ballroom,R,1.6267,NR,3.0000
429,11,189,106.5046,-94.5031,WO,4,3,SOUP,creek,R,1.2904,NR,3.0000
430,11,190,118.5666,-106.5656,WO,4,4,SOUP,creek,R,1.4652,NR,3.0000
431,11,191,130.6282,-118.6263,WI,4,4,EAGLE,ballroom,R,1.5451,NR,3.0000
432,11,192,142.6909,-130.6888,WO,4,3,HOOK,bayou,R,0.7530,NR,3.0000
433,11,193,154.7540,-142.7518,WI,4,3,TROPHY,archive,R,1.5765,NR,3.0000
434,11,194,166.8170,-154.8152,WO,4,3,MEDICINE,amphitheater,R,2.7314,NR,3.0000
435,11,195,178.8796,-166.8786,WO,2,2,ZIPPER,bullring,R,1.5757,NR,3.0000
436,11,196,190.9413,-178.9406,WI,4,3,BOWL,lecture_room,R,2.1779,NR,3.0000
437,11,197,203.0026,-191.0006,WI,2,2,CROWN,burial_chamber,R,2.0352,NR,3.0000
438,11,198,215.0661,-203.0638,WO,4,3,TROLLEY,picnic_area,R,1.9086,NR,3.0000
439,11,199,227.1292,-215.1278,WI,2,2,OTTER,art_studio,R,2.5932,NR,3.0000
440,11,200,239.1912,-227.1890,WI,4,3,SCROLL,cubicle,R,1.7874,NR,3.0000
441,11,201,251.2549,-239.2530,WO,2,2,BOAT,boathouse,R,1.3902,NR,3.0000
442,11,202,263.3173,-251.3161,WI,4,4,TROPHY,archive,R,0.8956,NR,3.0000
443,11,203,275.3796,-263.3786,WI,2,2,TELEGRAPH,restaurant,R,1.4484,NR,3.0000
444,11,204,287.4412,-275.4396,WO,4,4,CAMEL,iceberg,R,2.0040,NR,3.0000
445,11,205,299.5035,-287.5022,WO,4,3,CLARINET,field_wild,R,1.2177,NR,3.0000
446,11,206,311.5660,-299.5645,WI,4,4,SOAP,brewery,R,0.9015,NR,3.0000
447,11,207,323.6284,-311.6276,WO,4,3,SPATULA,mountain,R,1.5041,NR,3.0000
448,11,208,335.6903,-323.6885,WO,2,2,WRENCH,beach,R,1.1240,NR,3.0000
449,11,209,347.7527,-335.7513,WI,2,2,ROCK,dorm_room,R,1.4381,NR,3.0000
450,11,210,359.8149,-347.8132,WI,4,4,ARMOR,kindergarden_classroom,R,1.0382,NR,3.0000
451,11,211,371.8776,-359.8764,WO,4,4,SPATULA,mountain,R,2.1840,NR,3.0000
452,11,212,383.9394,-371.9378,WO,4,4,CLARINET,field_wild,R,1.2073,NR,3.0000
453,11,213,396.0024,-384.0010,WI,4,4,SCROLL,cubicle,R,1.7593,NR,3.0000
454,11,214,408.0645,-396.0634,WO,4,4,MEDICINE,amphitheater,R,2.3631,NR,3.0000
455,11,215,420.1264,-408.1234,WI,4,4,CAGE,locker_room,R,2.2914,NR,3.0000
456,11,216,432.1901,-420.1887,WO,2,2,BRACELET,power_plant,R,1.9296,NR,3.0000
457,11,217,444.2521,-432.2499,WO,2,2,PEDAL,highway,R,1.7340,NR,3.0000
458,11,218,456.3157,-444.3141,WI,2,2,SOCK,toyshop,R,1.6967,NR,3.0000
459,11,219,468.3781,-456.3762,WI,4,4,BOWL,lecture_room,R,0.9530,NR,3.0000
460,11,220,480.4409,-468.4387,WI,2,2,MAP,office,R,1.7073,NR,3.0000
461,11,221,492.5043,-480.5022,WO,4,4,HOOK,bayou,R,2.2702,NR,3.0000
462,11,222,504.5672,-492.5656,WO,4,4,TROLLEY,picnic_area,R,1.7403,NR,3.0000
463,12,199,10.0041,1.9981,WO,4,3,JUGGLER,cabin,R,0.9745,NR,3.0000
464,12,200,22.3566,-10.3554,WO,4,3,LAMB,hotel,R,1.0630,NR,3.0000
465,12,201,34.4196,-22.4174,WI,2,2,ROSE,auditorium,R,1.7888,NR,3.0000
466,12,202,46.4830,-34.4813,WO,4,4,LAMB,hotel,R,1.8040,NR,3.0000
467,12,203,58.5464,-46.5442,WI,4,3,NIGHTGOWN,aquarium,R,2.1616,NR,3.0000
468,12,204,70.6107,-58.6090,WO,2,2,ACCORDIAN,ocean,R,2.0813,NR,3.0000
469,12,205,82.6741,-70.6727,WI,2,2,NOODLE,childs_room,R,0.7247,NR,3.0000
470,12,206,94.7374,-82.7360,WO,4,3,WITCH,beach,R,1.0701,NR,3.0000
471,12,207,106.8007,-94.7988,WI,2,2,POSTER,baggage_claim,R,1.5295,NR,3.0000
472,12,208,118.8642,-106.8631,WO,4,3,RUDDER,excavation,R,1.8418,NR,3.0000
473,12,209,130.9273,-118.9266,WO,2,2,BOOT,basketball_court,R,2.2673,NR,3.0000
474,12,210,142.9897,-130.9885,WI,2,2,VODKA,casino,R,1.5311,NR,3.0000
475,12,211,155.0524,-143.0502,WI,2,2,SAXOPHONE,jail_cell,R,1.8678,NR,3.0000
476,12,212,167.1171,-155.1155,WO,4,3,STOOL,hot_tub,R,1.8607,NR,3.0000
477,12,213,179.1805,-167.1791,WI,4,3,SALAD,home_office,R,1.7933,NR,3.0000
478,12,214,191.2443,-179.2426,WO,4,4,STOOL,hot_tub,R,1.1677,NR,3.0000
479,12,215,203.3076,-191.3064,WO,4,3,DRUG,hot_spring,R,0.9288,NR,3.0000
480,12,216,215.3704,-203.3695,WI,4,3,EYE,banquet_hall,R,1.2716,NR,3.0000
481,12,217,227.4337,-215.4330,WO,4,3,TRIBE,pavilion,R,1.6501,NR,3.0000
482,12,218,239.4963,-227.4954,WI,4,3,ANT,kennel,R,1.7672,NR,3.0000
483,12,219,251.5595,-239.5585,WO,2,2,OATMEAL,harbor,R,2.4711,NR,3.0000
484,12,220,263.6225,-251.6204,WI,4,3,EASEL,bistro,R,2.7847,NR,3.0000
485,12,221,275.6888,-263.6877,WI,4,4,SALAD,home_office,R,1.9788,NR,3.0000
486,12,222,287.7522,-275.7504,WI,2,2,SUNBURN,gymnasium,R,2.3715,NR,3.0000
487,12,223,299.8158,-287.8145,WO,4,4,DRUG,hot_spring,R,0.9456,NR,3.0000
488,12,224,311.8794,-299.8786,WI,2,2,STORK,museum,R,1.8050,NR,3.0000
489,12,225,323.9422,-311.9395,WI,4,3,MANURE,cafeteria,R,2.5847,NR,3.0000
490,12,226,336.0070,-324.0050,WI,4,3,CRADLE,stage,R,1.6182,NR,3.0000
491,12,227,348.0713,-336.0693,WO,2,2,JACKET,barn,R,2.5560,NR,3.0000
492,12,228,360.1350,-348.1335,WO,2,2,ARROW,canyon,R,1.8422,NR,3.0000
493,12,229,372.1985,-360.1963,WI,4,4,MANURE,cafeteria,R,0.8072,NR,3.0000
494,12,230,384.2625,-372.2608,WO,4,4,TRIBE,pavilion,R,1.2368,NR,3.0000
495,12,231,396.3267,-384.3260,WI,4,4,EASEL,bistro,R,0.9946,NR,3.0000
496,12,232,408.3895,-396.3879,WI,4,4,NIGHTGOWN,aquarium,R,1.1184,NR,3.0000
497,12,233,420.4530,-408.4522,WO,4,4,WITCH,beach,R,1.5578,NR,3.0000
498,12,234,432.5162,-420.5141,WO,4,4,JUGGLER,cabin,R,1.8073,NR,3.0000
499,12,235,444.5802,-432.5788,WO,4,4,RUDDER,excavation,R,0.9094,NR,3.0000
500,12,236,456.6442,-444.6433,WI,4,4,EYE,banquet_hall,R,1.3241,NR,3.0000
501,12,237,468.7074,-456.7060,WO,2,2,DOVE,lock_chamber,R,2.1942,NR,3.0000
502,12,238,480.7709,-468.7686,WI,4,4,ANT,kennel,R,2.6718,NR,3.0000
503,12,239,492.8356,-480.8345,WI,4,4,CRADLE,stage,R,2.2565,NR,3.0000
504,12,240,504.8983,-492.8967,WO,2,2,FLASK,patio,R,2.2144,NR,3.0000
