index,run,trial,onset,duration,cond,shockCond,shockTrial,target,associate,resp,acc,accSpec,respRT,ISIresp,ISIacc,ISIaccSpec,ISIrespRT
1,1,1,12.0272,9.1064,TO_2,safe,0,CANDLE,castle,F,M,MI,1.9546,NR,NR,NR,999.0000
2,1,2,21.1628,10.9955,F,safe,0,BAYONET,foil,F,CR,CR,1.1552,NR,NR,NR,999.0000
3,1,3,32.1940,10.0877,TI_4,safe,0,HAM,toyshop,TO,SM,SMI_Hi,2.2101,NR,NR,NR,999.0000
4,1,4,42.3100,10.7120,TO_4,safe,0,SHEEP,general_store,TO,H,HO_Hi,1.6544,NR,NR,NR,999.0000
5,1,5,53.0499,9.7636,TO_2,safe,0,BIBLE,river,F,M,MI,1.7840,NR,NR,NR,999.0000
6,1,6,62.8419,10.1070,F,safe,0,TOWEL,foil,TO,FA,FAO_Lo,2.1969,NR,NR,NR,999.0000
7,1,7,72.9772,10.3748,F,safe,0,HELMET,foil,F,CR,CR,2.7624,NR,NR,NR,999.0000
8,1,8,83.3801,10.5694,F,safe,0,ANT,foil,F,CR,CR,1.2600,NR,NR,NR,999.0000
9,1,9,93.9787,9.2772,TO_4,safe,0,BROWNIE,greenhouse,TO,H,HO_Hi,2.1921,NR,NR,NR,999.0000
10,1,10,103.2844,9.1159,TO_2,safe,0,PEARL,lock_chamber,TI,SM,SMO_Lo,2.1809,NR,NR,NR,999.0000
11,1,11,112.4286,9.1793,F,safe,0,CARROT,foil,TO,FA,FAO_Lo,2.2271,NR,NR,NR,999.0000
12,1,12,121.6369,9.1253,TI_4,safe,0,SLIPPER,cockpit,TI,H,HI_Lo,2.5750,TI,H,HI_Hi,0.1369
13,1,13,130.7903,12.3324,TI_2,safe,0,WOLF,garage,TO,SM,SMI_Hi,1.8104,NR,NR,NR,999.0000
14,1,14,143.1520,11.3364,TO_4,safe,0,ACCORDIAN,cliff,TO,H,HO_Hi,2.9618,NR,NR,NR,999.0000
15,1,15,154.5172,9.9136,TI_4,safe,0,SHOWER,bus_interior,F,M,MI,1.9423,NR,NR,NR,999.0000
16,1,16,164.4593,10.5529,TO_2,safe,0,CANARY,nuclear_power_plant,TO,H,HO_Lo,3.3454,NR,NR,NR,999.0000
17,1,17,175.0411,11.9440,TI_2,safe,0,HONEY,pantry,F,M,MI,2.1508,NR,NR,NR,999.0000
18,1,18,187.0131,9.7564,F,safe,0,DOLL,foil,F,CR,CR,1.1507,NR,NR,NR,999.0000
19,1,19,196.7983,9.9904,TI_2,safe,0,CLARINET,stable,TI,H,HI_Lo,2.3112,NR,NR,NR,999.0000
20,1,20,206.8177,9.8069,F,safe,0,FLASK,foil,TO,FA,FAO_Hi,3.0311,NR,NR,NR,999.0000
21,1,21,216.6530,11.6231,F,safe,0,GLOVE,foil,TO,FA,FAO_Hi,1.9904,NR,NR,NR,999.0000
22,1,22,228.3049,9.1473,F,safe,0,OPIUM,foil,F,CR,CR,1.7425,NR,NR,NR,999.0000
23,1,23,237.4813,9.0594,TI_4,safe,0,SHOVEL,hospital_room,TO,SM,SMI_Hi,1.4536,NR,NR,NR,999.0000
24,1,24,246.5692,12.3259,TI_4,safe,0,BASKET,ballroom,TI,H,HI_Hi,1.6139,NR,NR,NR,999.0000
25,1,25,258.9237,9.4184,TI_2,safe,0,SYRUP,bazaar,TI,H,HI_Hi,1.7271,NR,NR,NR,999.0000
26,1,26,268.3712,9.9320,F,safe,0,MAGICIAN,foil,F,CR,CR,3.2081,NR,NR,NR,999.0000
27,1,27,278.3319,10.4720,F,safe,0,TORNADO,foil,F,CR,CR,1.4629,NR,NR,NR,999.0000
28,1,28,288.8323,9.6336,TI_2,safe,0,RICE,sauna,TO,SM,SMI_Hi,2.2276,NR,NR,NR,999.0000
29,1,29,298.4960,9.8952,TO_4,safe,0,ASPARAGUS,canal,TI,SM,SMO_Lo,2.7420,NR,NR,NR,999.0000
30,1,30,308.4199,11.6829,TO_2,safe,0,CAMERA,balcony,TI,SM,SMO_Lo,2.7666,NR,NR,NR,999.0000
31,1,31,320.1315,9.2548,TI_4,safe,0,SHRIMP,elevator,TO,SM,SMI_Hi,1.6345,TI,H,HI_Lo,0.3214
32,1,32,329.4145,9.9221,TO_2,safe,0,PUMPKIN,kasbah,F,M,MI,1.6592,NR,NR,NR,999.0000
33,1,33,339.3653,10.2003,TO_4,safe,0,SQUIRREL,bamboo_forest,TO,H,HO_Hi,1.8309,NR,NR,NR,999.0000
34,1,34,349.5942,9.5365,TI_2,safe,0,YACHT,brewery,TO,SM,SMI_Hi,2.8191,NR,NR,NR,999.0000
35,1,35,359.1598,9.3750,F,safe,0,WALNUT,foil,F,CR,CR,1.1684,NR,NR,NR,999.0000
36,1,36,368.5636,9.3918,TO_2,safe,0,PENCIL,mausoleum,TO,H,HO_Hi,1.5369,NR,NR,NR,999.0000
37,1,37,377.9837,9.6901,TO_4,safe,0,TRAY,office_building,F,M,MI,1.3543,NR,NR,NR,999.0000
38,1,38,387.7033,9.6876,TI_2,safe,0,ANCHOR,riding_arena,F,M,MI,1.1238,NR,NR,NR,999.0000
39,1,39,397.4197,11.2671,F,safe,0,SEAWEED,foil,F,CR,CR,1.5401,NR,NR,NR,999.0000
40,1,40,408.7158,11.1873,TI_4,safe,0,GEESE,synagogue,TO,SM,SMI_Hi,2.5884,NR,NR,NR,999.0000
41,1,41,419.9319,9.7552,F,safe,0,RIFLE,foil,F,CR,CR,3.5284,NR,NR,NR,999.0000
42,1,42,429.7155,10.6534,TO_4,safe,0,NEST,ocean,TO,H,HO_Hi,2.3326,NR,NR,NR,999.0000
43,2,1,12.0048,9.1273,F,threat,0,BEAVER,foil,TO,FA,FAO_Hi,2.1089,NR,NR,NR,999.0000
44,2,2,21.1632,10.3699,F,threat,0,PASTE,foil,F,CR,CR,1.2192,NR,NR,NR,999.0000
45,2,3,31.5642,10.1069,TO_4,threat,0,STOOL,field_cultivated,TI,SM,SMO_Lo,2.2252,NR,NR,NR,999.0000
46,2,4,41.7010,9.6852,TI_4,threat,0,WHIP,ice_cream_parlor,TI,H,HI_Hi,1.6676,NR,NR,NR,999.0000
47,2,5,51.4168,10.0930,TO_4,threat,0,SARDINE,inn,TI,SM,SMO_Lo,2.2079,NR,NR,NR,999.0000
48,2,6,61.5409,10.4705,F,threat,0,MEDAL,foil,F,CR,CR,1.9755,NR,NR,NR,999.0000
49,2,7,72.0420,9.1757,TO_4,threat,0,PIANO,beach,TO,H,HO_Lo,1.9729,NR,NR,NR,999.0000
50,2,8,81.2491,9.1469,TI_2,threat,0,SCREWDRIVER,music_studio,F,M,MI,1.8763,NR,NR,NR,999.0000
51,2,9,90.4268,9.1140,TI_2,threat,0,CRAB,courtroom,TO,SM,SMI_Hi,2.7794,NR,NR,NR,999.0000
52,2,10,99.5712,9.9886,TI_2,threat,0,MEDICINE,escalator,F,M,MI,2.1162,NR,NR,NR,999.0000
53,2,11,109.5903,9.0582,TI_4,threat,0,ARROW,gymnasium,TO,SM,SMI_Hi,2.9011,NR,NR,NR,999.0000
54,2,12,118.6797,11.6794,TO_4,threat,0,UMBRELLA,electrical_substation,TO,H,HO_Hi,2.2681,NR,NR,NR,999.0000
55,2,13,130.3905,12.3226,TI_2,threat,0,CUCUMBER,tennis_court,TI,H,HI_Hi,3.2376,NR,NR,NR,999.0000
56,2,14,142.7434,9.2729,TO_2,threat,0,MITTEN,plaza,TI,SM,SMO_Lo,3.0199,NR,NR,NR,999.0000
57,2,15,152.0468,9.7542,F,threat,0,PEDAL,foil,F,CR,CR,1.5822,NR,NR,NR,999.0000
58,2,16,161.8317,9.7530,F,threat,0,SCAB,foil,F,CR,CR,2.1575,NR,NR,NR,999.0000
59,2,17,171.6152,10.5529,TO_2,threat,1,SOUP,hayfield,F,M,MI,2.9688,NR,NR,NR,999.0000
60,2,18,182.1993,10.7074,TO_4,threat,0,BOAT,beach,TO,H,HO_Hi,2.4300,NR,NR,NR,999.0000
61,2,19,192.9374,9.7611,TI_2,threat,0,POWDER,game_room,TI,H,HI_Hi,2.7346,NR,NR,NR,999.0000
62,2,20,202.7301,10.5670,F,threat,0,NIGHTGOWN,foil,F,CR,CR,1.7946,NR,NR,NR,999.0000
63,2,21,213.3281,11.6200,TI_2,threat,0,NOODLE,television_studio,F,M,MI,2.5495,NR,NR,NR,999.0000
64,2,22,224.9787,9.6874,TO_2,threat,0,DOVE,moat,F,M,MI,2.1916,NR,NR,NR,999.0000
65,2,23,234.6965,9.1253,F,threat,0,KILT,foil,F,CR,CR,2.4573,NR,NR,NR,999.0000
66,2,24,243.8531,9.8061,TI_4,threat,0,BARREL,control_room,TO,SM,SMI_Hi,2.6265,NR,NR,NR,999.0000
67,2,25,253.6900,9.3735,TI_4,threat,0,BALLOON,engine_room,TI,H,HI_Lo,3.2164,NR,NR,NR,999.0000
68,2,26,263.0942,9.9113,TO_4,threat,0,LAMB,driving_range,TI,SM,SMO_Hi,3.2608,NR,NR,NR,999.0000
69,2,27,273.0367,12.3271,TO_2,threat,0,POTATO,forest_path,TO,H,HO_Lo,3.7128,NR,NR,NR,999.0000
70,2,28,285.3947,11.3357,F,threat,0,DIAMOND,foil,TI,FA,FAI_Hi,3.4542,NR,NR,NR,999.0000
71,2,29,296.7617,10.6502,F,threat,0,CHICKEN,foil,F,CR,CR,2.0769,NR,NR,NR,999.0000
72,2,30,307.4426,10.9952,TO_4,threat,0,CRADLE,desert,TI,SM,SMO_Hi,2.5486,NR,NR,NR,999.0000
73,2,31,318.4686,9.2520,F,threat,0,GLOBE,foil,F,CR,CR,2.2689,NR,NR,NR,999.0000
74,2,32,327.7519,9.4172,TI_2,threat,0,SOOT,parking_garage,TO,SM,SMI_Hi,3.2318,NR,NR,NR,999.0000
75,2,33,337.1999,11.9417,TO_2,threat,0,SHARK,rice_paddy,F,M,MI,3.0565,NR,NR,NR,999.0000
76,2,34,349.1721,9.9200,TI_4,threat,0,MAP,auto_factory,TI,H,HI_Hi,2.4782,NR,NR,NR,999.0000
77,2,35,359.1238,9.6322,F,threat,0,STORK,foil,F,CR,CR,1.7475,NR,NR,NR,999.0000
78,2,36,368.7867,9.8947,F,threat,0,TIGER,foil,F,CR,CR,2.0974,NR,NR,NR,999.0000
79,2,37,378.7124,9.5337,TI_4,threat,0,STAPLER,swimming_pool,TI,H,HI_Hi,3.2022,NR,NR,NR,999.0000
80,2,38,388.2776,10.1966,TI_4,threat,0,SCORPION,closet,TO,SM,SMI_Lo,2.9028,NR,NR,NR,999.0000
81,2,39,398.5051,11.2654,F,threat,0,CEREAL,foil,F,CR,CR,1.5315,NR,NR,NR,999.0000
82,2,40,409.8014,9.3901,TO_2,threat,0,GOAT,field_wild,TO,H,HO_Hi,2.6824,NR,NR,NR,999.0000
83,2,41,419.2226,9.9300,F,threat,0,EYE,foil,TO,FA,FAO_Lo,2.5142,NR,NR,NR,999.0000
84,2,42,429.1839,11.1847,TO_2,threat,0,CROWN,creek,TI,SM,SMO_Lo,2.8730,NR,NR,NR,999.0000
85,3,1,12.0054,9.2795,TO_2,safe,0,CANDY,fire_station,F,M,MI,1.5075,NR,NR,NR,999.0000
86,3,2,21.3179,9.7582,TI_2,safe,0,LAMP,art_gallery,TI,H,HI_Hi,2.0577,NR,NR,NR,999.0000
87,3,3,31.1076,9.0576,TO_4,safe,0,BELL,house,TI,SM,SMO_Hi,3.1387,NR,NR,NR,999.0000
88,3,4,40.1971,10.3694,TO_2,safe,0,ROCK,canyon,TO,H,HO_Hi,1.8176,NR,NR,NR,999.0000
89,3,5,50.5987,9.8930,TO_2,safe,0,BATON,aqueduct,TO,H,HO_Hi,2.0572,NR,NR,NR,999.0000
90,3,6,60.5236,9.1750,F,safe,0,HIGHWAY,foil,F,CR,CR,2.5609,NR,NR,NR,999.0000
91,3,7,69.7304,9.5341,F,safe,0,LANTERN,foil,F,CR,CR,3.7355,NR,NR,NR,999.0000
92,3,8,79.2969,10.5669,TI_4,safe,0,SOAP,kitchen,TI,H,HI_Hi,1.6023,NR,NR,NR,999.0000
93,3,9,89.8956,9.7517,F,safe,0,SWORD,foil,TO,FA,FAO_Hi,3.0186,NR,NR,NR,999.0000
94,3,10,99.6791,10.1966,TO_4,safe,0,SCROLL,gazebo,TO,H,HO_Hi,2.1494,NR,NR,NR,999.0000
95,3,11,109.9082,12.3253,F,safe,0,GORILLA,foil,F,CR,CR,1.3234,NR,NR,NR,999.0000
96,3,12,122.2652,10.7087,F,safe,0,BUTTER,foil,F,CR,CR,2.3885,NR,NR,NR,999.0000
97,3,13,133.0058,10.6485,TI_2,safe,0,PASSPORT,florist_shop,TO,SM,SMI_Hi,3.7000,NR,NR,NR,999.0000
98,3,14,143.6867,9.3895,TO_2,safe,0,QUAIL,oilrig,TO,H,HO_Hi,2.6845,NR,NR,NR,999.0000
99,3,15,153.1077,11.1837,TI_2,safe,0,DUST,restaurant_kitchen,TO,SM,SMI_Hi,2.7719,NR,NR,NR,999.0000
100,3,16,164.3236,9.6876,F,safe,0,HOOK,foil,TI,FA,FAI_Lo,3.3842,NR,NR,NR,999.0000
101,3,17,174.0435,9.9273,F,safe,0,COFFEE,foil,F,CR,CR,2.8588,NR,NR,NR,999.0000
102,3,18,184.0028,9.1227,TO_4,safe,0,SCOTCH,highway,TO,H,HO_Hi,2.4137,NR,NR,NR,999.0000
103,3,19,193.1569,11.2658,F,safe,0,KALE,foil,TO,FA,FAO_Hi,3.1387,NR,NR,NR,999.0000
104,3,20,204.4548,9.6314,TO_4,safe,0,VINE,marsh,TO,H,HO_Hi,1.8275,NR,NR,NR,999.0000
105,3,21,214.1183,9.1130,TO_4,safe,0,WAND,picnic_area,TI,SM,SMO_Hi,2.8438,NR,NR,NR,999.0000
106,3,22,223.2632,9.6840,TI_2,safe,0,SALAD,living_room,TI,H,HI_Hi,1.5448,NR,NR,NR,999.0000
107,3,23,232.9799,11.3327,TI_4,safe,0,MANURE,classroom,TO,SM,SMI_Hi,2.5078,NR,NR,NR,999.0000
108,3,24,244.3446,10.5506,TI_4,safe,0,MOUSE,airplane_cabin,TI,H,HI_Hi,2.4331,NR,NR,NR,999.0000
109,3,25,254.9278,9.3716,F,safe,0,ORANGE,foil,F,CR,CR,2.7552,NR,NR,NR,999.0000
110,3,26,264.3315,10.1051,TI_2,safe,0,PENNY,bookstore,F,M,MI,1.2347,NR,NR,NR,999.0000
111,3,27,274.4686,10.4673,TO_4,safe,0,EMPEROR,badlands,TO,H,HO_Hi,2.6264,NR,NR,NR,999.0000
112,3,28,284.9686,9.9189,TO_2,safe,0,CORAL,motel,TO,H,HO_Lo,3.2694,NR,NR,NR,999.0000
113,3,29,294.9196,10.9930,TI_2,safe,0,OTTER,pulpit,TI,H,HI_Lo,2.4716,NR,NR,NR,999.0000
114,3,30,305.9447,9.2734,TI_4,safe,0,QUILL,car_interior,TI,H,HI_Hi,1.4937,NR,NR,NR,999.0000
115,3,31,315.2506,9.4149,F,safe,0,BUCKET,foil,TI,FA,FAI_Lo,3.4354,NR,NR,NR,999.0000
116,3,32,324.6972,12.3239,F,safe,0,FAN,foil,TO,FA,FAO_Lo,3.8038,NR,NR,NR,999.0000
117,3,33,337.0538,9.1429,TI_4,safe,0,HOSE,home_office,TI,H,HI_Hi,1.9120,NR,NR,NR,999.0000
118,3,34,346.2293,9.7527,F,safe,0,QUARTER,foil,TO,FA,FAO_Lo,2.8325,NR,NR,NR,999.0000
119,3,35,356.0142,11.9397,TI_2,safe,0,PANTS,cubicle,TI,H,HI_Lo,2.9012,NR,NR,NR,999.0000
120,3,36,367.9861,11.6786,TO_2,safe,0,TOAST,bayou,TI,SM,SMO_Hi,3.3316,TO,H,HO_Hi,0.1216
121,3,37,379.6971,9.8037,TI_4,safe,0,DRUM,cathedral,TO,SM,SMI_Hi,2.8214,NR,NR,NR,999.0000
122,3,38,389.5332,9.9089,F,safe,0,CHERRY,foil,TO,FA,FAO_Lo,2.5928,NR,NR,NR,999.0000
123,3,39,399.4743,11.6202,TO_2,safe,0,CLOAK,herb_garden,TO,H,HO_Lo,3.4425,NR,NR,NR,999.0000
124,3,40,411.1273,9.0962,TO_4,safe,0,BLANKET,corral,TO,H,HO_Hi,2.5263,NR,NR,NR,999.0000
125,3,41,420.2558,9.9876,TI_4,safe,0,FROG,jail_cell,TI,H,HI_Hi,1.9724,NR,NR,NR,999.0000
126,3,42,430.2752,10.0922,F,safe,0,OWL,foil,TO,FA,FAO_Hi,2.9571,NR,NR,NR,999.0000
127,4,1,12.0071,9.4146,F,threat,0,DESK,foil,F,CR,CR,3.6918,NR,NR,NR,999.0000
128,4,2,21.4555,9.7500,TO_4,threat,0,SPATULA,promenade_deck,TI,SM,SMO_Hi,2.2730,NR,NR,NR,999.0000
129,4,3,31.2386,12.3259,TI_2,threat,0,SNAIL,childs_room,TO,SM,SMI_Hi,2.1450,NR,NR,NR,999.0000
130,4,4,43.5980,10.1945,TO_4,threat,0,HAWK,botanical_garden,TO,H,HO_Hi,1.9004,NR,NR,NR,999.0000
131,4,5,53.8257,11.2625,TO_4,threat,0,PIGEON,lift_bridge,TO,H,HO_Hi,2.1128,NR,NR,NR,999.0000
132,4,6,65.1220,11.6170,F,threat,0,OLIVE,foil,TO,FA,FAO_Hi,1.9282,NR,NR,NR,999.0000
133,4,7,76.7720,10.1030,F,threat,0,POSTER,foil,F,CR,CR,2.7425,NR,NR,NR,999.0000
134,4,8,86.9083,9.1126,F,threat,0,APPLE,foil,F,CR,CR,2.6351,NR,NR,NR,999.0000
135,4,9,96.0544,10.5649,TO_2,threat,0,ICICLE,phone_booth,TI,SM,SMO_Hi,3.9303,TO,H,HO_Hi,0.7853
136,4,10,106.6521,10.4657,TO_2,threat,0,OATMEAL,palace,TO,H,HO_Hi,1.4730,NR,NR,NR,999.0000
137,4,11,117.1508,9.6306,TI_4,threat,0,VIOLIN,galley,TO,SM,SMI_Hi,2.4594,NR,NR,NR,999.0000
138,4,12,126.8152,11.3320,F,threat,0,CANE,foil,TO,FA,FAO_Hi,1.4110,NR,NR,NR,999.0000
139,4,13,138.1802,9.6868,TI_4,threat,0,PLUG,dentists_office,TI,H,HI_Hi,2.2548,NR,NR,NR,999.0000
140,4,14,147.9005,9.8029,TO_2,threat,0,FIDDLE,pond,TI,SM,SMO_Hi,2.7529,NR,NR,NR,999.0000
141,4,15,157.7367,12.3200,F,threat,0,FOX,foil,TI,FA,FAI_Lo,3.4298,NR,NR,NR,999.0000
142,4,16,170.0897,10.7061,F,threat,0,PAN,foil,TO,FA,FAO_Lo,3.0295,NR,NR,NR,999.0000
143,4,17,180.8293,10.6496,TI_4,threat,0,CAGE,bar,TI,H,HI_Hi,1.7292,NR,NR,NR,999.0000
144,4,18,191.5123,9.3702,F,threat,0,NET,foil,TO,FA,FAO_Lo,2.7867,NR,NR,NR,999.0000
145,4,19,200.9155,9.1756,TO_4,threat,0,RAKE,rope_bridge,TO,H,HO_Lo,2.9259,NR,NR,NR,999.0000
146,4,20,210.1242,9.0967,TO_2,threat,0,RASH,observatory,NR,NR,NR,999.0000,NR,NR,NR,999.0000
147,4,21,219.2544,11.1826,TI_2,threat,0,SPONGE,locker_room,TO,SM,SMI_Lo,1.4107,NR,NR,NR,999.0000
148,4,22,230.4707,10.3697,TI_2,threat,1,CHOCOLATE,nursery,TO,SM,SMI_Hi,1.7739,NR,NR,NR,999.0000
149,4,23,240.8735,9.6813,TI_4,threat,0,ZIPPER,restaurant,TO,SM,SMI_Hi,1.7447,NR,NR,NR,999.0000
150,4,24,250.5886,9.9861,TI_4,threat,0,RACQUET,catacomb,TO,SM,SMI_Hi,3.0876,NR,NR,NR,999.0000
151,4,25,260.6080,10.0899,TO_2,threat,0,NAPKIN,power_plant,TO,H,HO_Hi,2.5342,NR,NR,NR,999.0000
152,4,26,270.7313,9.7512,F,threat,0,SCOOTER,foil,TI,FA,FAI_Lo,2.4623,NR,NR,NR,999.0000
153,4,27,280.5160,11.9389,F,threat,0,ROPE,foil,TO,FA,FAO_Hi,2.4955,NR,NR,NR,999.0000
154,4,28,292.4885,9.2714,TO_4,threat,0,TABLE,dam,TI,SM,SMO_Lo,1.6195,NR,NR,NR,999.0000
155,4,29,301.7934,9.0557,TI_4,threat,0,MONKEY,beauty_salon,TO,SM,SMI_Lo,3.7585,TI,H,HI_Lo,0.5098
156,4,30,310.8831,10.5485,F,threat,0,DOUGHNUT,foil,F,CR,CR,1.7803,NR,NR,NR,999.0000
157,4,31,321.4649,9.7576,TI_2,threat,0,TROPHY,stage,TO,SM,SMI_Lo,2.2991,NR,NR,NR,999.0000
158,4,32,331.2569,10.9910,TO_4,threat,0,ORNAMENT,carrousel,TO,H,HO_Hi,2.0521,NR,NR,NR,999.0000
159,4,33,342.2817,9.4139,F,threat,0,MUSSEL,foil,F,CR,CR,3.3609,NR,NR,NR,999.0000
160,4,34,351.7291,9.9197,TO_2,threat,0,BANANA,chalet,TO,H,HO_Hi,3.8238,NR,NR,NR,999.0000
161,4,35,361.6823,9.5314,TI_2,threat,0,BOWL,kitchenette,TI,H,HI_Lo,2.5530,NR,NR,NR,999.0000
162,4,36,371.2479,9.1438,TI_2,threat,0,LIGHTNING,chicken_coop,TI,H,HI_Lo,3.4060,NR,NR,NR,999.0000
163,4,37,380.4260,9.2487,F,threat,0,SUBMARINE,foil,F,CR,CR,2.3573,NR,NR,NR,999.0000
164,4,38,389.7081,9.8915,F,threat,0,THONG,foil,F,CR,CR,2.1062,NR,NR,NR,999.0000
165,4,39,399.6330,9.1203,TI_4,threat,0,TOBACCO,butchers_shop,TO,SM,SMI_Hi,2.0180,NR,NR,NR,999.0000
166,4,40,408.7866,9.9102,TO_4,threat,0,RING,barn,TO,H,HO_Hi,1.3694,NR,NR,NR,999.0000
167,4,41,418.7305,11.6760,TO_2,threat,0,DAMSEL,baseball_field,TO,H,HO_Hi,2.3720,NR,NR,NR,999.0000
168,4,42,430.4414,9.9274,TI_2,threat,0,ALLIGATOR,ball_pit,TI,H,HI_Hi,2.0832,NR,NR,NR,999.0000
169,5,1,12.0068,9.9455,TO_4,safe,0,BRACELET,ice_floe,F,M,MI,2.1669,NR,NR,NR,999.0000
170,5,2,21.9878,9.8014,TO_2,safe,0,EAGLE,pagoda,TO,H,HO_Hi,2.0627,NR,NR,NR,999.0000
171,5,3,31.8235,11.1828,F,safe,0,ELEPHANT,foil,TI,FA,FAI_Lo,2.9017,NR,NR,NR,999.0000
172,5,4,43.0406,9.5316,TI_2,safe,0,DRUG,assembly_line,TO,SM,SMI_Lo,1.5096,NR,NR,NR,999.0000
173,5,5,52.6070,9.6808,F,safe,0,PUDDLE,foil,F,CR,CR,1.8399,NR,NR,NR,999.0000
174,5,6,62.3221,9.1202,F,safe,0,HAMMER,foil,TO,FA,FAO_Lo,2.4169,NR,NR,NR,999.0000
175,5,7,71.4766,10.0902,TI_2,safe,0,SUNBURN,squash_court,F,M,MI,1.2987,NR,NR,NR,999.0000
176,5,8,81.6012,9.3858,TO_4,safe,0,TULIP,bridge,F,M,MI,1.2498,NR,NR,NR,999.0000
177,5,9,91.0214,11.6157,F,safe,0,ENVELOPE,foil,F,CR,CR,2.5046,NR,NR,NR,999.0000
178,5,10,102.6716,11.6778,TI_4,safe,0,JACKET,biology_laboratory,F,M,MI,1.2601,NR,NR,NR,999.0000
179,5,11,114.3842,9.1416,F,safe,0,SCISSORS,foil,TO,FA,FAO_Hi,2.6211,NR,NR,NR,999.0000
180,5,12,123.5601,10.9900,TI_4,safe,0,TURTLE,shopping_mall,TI,H,HI_Hi,2.1345,NR,NR,NR,999.0000
181,5,13,134.5846,11.2624,TI_2,safe,0,TRIBE,auditorium,TI,H,HI_Hi,2.3786,NR,NR,NR,999.0000
182,5,14,145.8820,9.0963,TO_2,safe,0,WHEAT,fishpond,TO,H,HO_Hi,2.0174,NR,NR,NR,999.0000
183,5,15,155.0128,11.9376,TI_2,safe,0,ROCKER,operating_room,TO,SM,SMI_Hi,2.2737,NR,NR,NR,999.0000
184,5,16,166.9848,11.3313,F,safe,0,CANNON,foil,F,CR,CR,3.3419,NR,NR,NR,999.0000
185,5,17,178.3509,9.9832,TI_4,safe,0,TWEEZERS,supermarket,TI,H,HI_Hi,2.2796,NR,NR,NR,999.0000
186,5,18,188.3686,10.1030,F,safe,0,ORCHID,foil,TO,FA,FAO_Hi,2.4217,NR,NR,NR,999.0000
187,5,19,198.5056,9.3705,TO_4,safe,0,LION,mountain,TO,H,HO_Hi,1.5812,NR,NR,NR,999.0000
188,5,20,207.9112,9.7480,F,safe,0,PYTHON,foil,TO,FA,FAO_Hi,2.9113,NR,NR,NR,999.0000
189,5,21,217.6937,10.1941,TI_4,safe,0,STOMACH,banquet_hall,TI,H,HI_Hi,2.4514,NR,NR,NR,999.0000
190,5,22,227.9219,9.8919,TI_2,safe,0,WINE,cafeteria,TO,SM,SMI_Hi,2.7671,NR,NR,NR,999.0000
191,5,23,237.8485,10.5636,TI_2,safe,0,BABY,bowling_alley,F,M,MI,1.6804,NR,NR,NR,999.0000
192,5,24,248.4471,10.7031,TO_4,safe,0,HATCHET,playground,NR,NR,NR,999.0000,TO,H,HO_Hi,0.0543
193,5,25,259.1845,10.6489,TI_4,safe,0,NECKLACE,movie_theater,TI,H,HI_Hi,1.9054,NR,NR,NR,999.0000
194,5,26,269.8684,9.7548,TO_4,safe,0,VODKA,formal_garden,TO,H,HO_Hi,1.7960,NR,NR,NR,999.0000
195,5,27,279.6586,9.7488,F,safe,0,TYPEWRITER,foil,F,CR,CR,1.9272,NR,NR,NR,999.0000
196,5,28,289.4418,10.5498,F,safe,0,MUFFIN,foil,TO,FA,FAO_Hi,2.4061,NR,NR,NR,999.0000
197,5,29,300.0265,12.3228,TO_2,safe,0,TEETH,cottage_garden,TI,SM,SMO_Hi,2.7753,NR,NR,NR,999.0000
198,5,30,312.3842,9.0533,TO_4,safe,0,SHELL,iceberg,TO,H,HO_Hi,2.3012,NR,NR,NR,999.0000
199,5,31,321.4716,9.4134,TO_2,safe,0,FIRE,outhouse,TO,H,HO_Hi,2.5175,NR,NR,NR,999.0000
200,5,32,330.9202,9.2495,TI_4,safe,0,LETTUCE,bathroom,F,M,MI,1.8212,NR,NR,NR,999.0000
201,5,33,340.2045,9.9248,TO_2,safe,0,WRENCH,ruin,TI,SM,SMO_Hi,2.2118,NR,NR,NR,999.0000
202,5,34,350.1641,10.3673,TI_2,safe,0,SOCK,subway_interior,F,M,MI,2.3274,NR,NR,NR,999.0000
203,5,35,360.5662,9.6846,F,safe,0,OMELET,foil,F,CR,CR,1.8324,NR,NR,NR,999.0000
204,5,36,370.2857,12.3196,TO_2,safe,0,GARBAGE,landing_deck,TO,H,HO_Hi,2.3237,NR,NR,NR,999.0000
205,5,37,382.6397,10.4645,F,safe,0,PIE,foil,F,CR,CR,1.3332,NR,NR,NR,999.0000
206,5,38,393.1396,9.1098,TO_2,safe,0,WALLET,crevasse,F,M,MI,1.2129,NR,NR,NR,999.0000
207,5,39,402.2844,9.1737,F,safe,0,MOON,foil,TO,FA,FAO_Lo,2.7608,NR,NR,NR,999.0000
208,5,40,411.4924,9.2696,TI_4,safe,0,KEG,badminton_court,TI,H,HI_Hi,1.7222,NR,NR,NR,999.0000
209,5,41,420.7977,9.9084,F,safe,0,RUDDER,foil,F,CR,CR,3.3667,NR,NR,NR,999.0000
210,5,42,430.7408,9.6279,TO_4,safe,0,BANDIT,construction_site,TO,H,HO_Lo,3.2009,NR,NR,NR,999.0000
211,6,1,12.0057,10.1211,TI_4,threat,0,TROLLEY,candy_store,F,M,MI,1.3490,NR,NR,NR,999.0000
212,6,2,22.1641,9.9241,TO_4,threat,1,RABBIT,hot_tub,TO,H,HO_Lo,1.6259,NR,NR,NR,999.0000
213,6,3,32.1235,10.5474,TO_2,threat,0,LIME,arch,TO,H,HO_Lo,3.0068,NR,NR,NR,999.0000
214,6,4,42.7070,11.1786,TO_2,threat,0,MUSTARD,dock,TO,H,HO_Lo,2.1342,NR,NR,NR,999.0000
215,6,5,53.9218,9.2471,TO_4,threat,0,BONE,boardwalk,TI,SM,SMO_Lo,2.2964,NR,NR,NR,999.0000
216,6,6,63.2045,10.5641,TO_4,threat,0,CHEESE,railroad_track,TO,H,HO_Hi,1.2700,NR,NR,NR,999.0000
217,6,7,73.8043,12.3212,F,threat,0,WITCH,foil,TO,FA,FAO_Lo,2.1927,NR,NR,NR,999.0000
218,6,8,86.1612,10.9900,TI_4,threat,0,FORK,diner,TI,H,HI_Hi,1.5509,NR,NR,NR,999.0000
219,6,9,97.1870,9.4128,F,threat,0,KNIFE,foil,F,CR,CR,3.0091,NR,NR,NR,999.0000
220,6,10,106.6362,11.9351,F,threat,0,HARPOON,foil,F,CR,CR,2.1733,NR,NR,NR,999.0000
221,6,11,118.6069,9.0952,TI_4,threat,0,OYSTER,aquarium,TO,SM,SMI_Lo,1.2931,NR,NR,NR,999.0000
222,6,12,127.7378,9.6844,TI_4,threat,0,FENCE,train_station,TI,H,HI_Hi,3.3784,NR,NR,NR,999.0000
223,6,13,137.4584,10.7029,TO_4,threat,0,BRAIN,lighthouse,TO,H,HO_Lo,2.8262,NR,NR,NR,999.0000
224,6,14,148.1970,9.3839,TO_4,threat,0,QUILT,hotel,TO,H,HO_Hi,2.4649,NR,NR,NR,999.0000
225,6,15,157.6166,9.7494,F,threat,0,BENCH,foil,TO,FA,FAO_Lo,2.2293,NR,NR,NR,999.0000
226,6,16,167.4022,9.1399,F,threat,0,SADDLE,foil,TI,FA,FAI_Lo,2.0101,NR,NR,NR,999.0000
227,6,17,176.5777,9.9159,TI_2,threat,0,ROSARY,ice_skating_rink,TO,SM,SMI_Lo,1.5601,NR,NR,NR,999.0000
228,6,18,186.5293,11.2608,TI_4,threat,0,WORM,drugstore,F,M,MI,1.7888,NR,NR,NR,999.0000
229,6,19,197.8264,10.1919,F,threat,0,SANDAL,foil,TO,FA,FAO_Lo,1.9174,NR,NR,NR,999.0000
230,6,20,208.0540,9.8003,TI_2,threat,0,EASEL,basement,TI,H,HI_Lo,2.6109,TI,H,HI_Hi,0.0582
231,6,21,217.8899,9.9060,TO_2,threat,0,ACROBAT,boathouse,TO,H,HO_Lo,3.1084,NR,NR,NR,999.0000
232,6,22,227.8318,9.1110,TO_4,threat,0,SAIL,boat_deck,TO,H,HO_Hi,1.9844,NR,NR,NR,999.0000
233,6,23,236.9791,10.6447,F,threat,0,NEEDLE,foil,TO,FA,FAO_Lo,1.5625,NR,NR,NR,999.0000
234,6,24,247.6597,10.4643,F,threat,0,MOTH,foil,F,CR,CR,1.5181,NR,NR,NR,999.0000
235,6,25,258.1604,9.8886,TI_2,threat,0,WALRUS,fastfood_restaurant,TO,SM,SMI_Lo,2.0364,NR,NR,NR,999.0000
236,6,26,268.0858,10.0991,TI_2,threat,0,TELEGRAPH,kennel,TO,SM,SMI_Lo,2.1303,NR,NR,NR,999.0000
237,6,27,278.2216,9.1183,TO_4,threat,1,DETECTIVE,orchard,TO,H,HO_Lo,2.4866,NR,NR,NR,999.0000
238,6,28,287.3760,11.3291,F,threat,0,SNOW,foil,TO,FA,FAO_Lo,3.0786,NR,NR,NR,999.0000
239,6,29,298.7411,10.3664,TI_2,threat,0,BOOT,office,TO,SM,SMI_Lo,3.0484,NR,NR,NR,999.0000
240,6,30,309.1431,9.6806,F,threat,0,SEAL,foil,TI,FA,FAI_Lo,2.0971,NR,NR,NR,999.0000
241,6,31,318.8606,9.7549,TO_2,threat,0,ARMOR,igloo,TO,H,HO_Lo,1.6618,NR,NR,NR,999.0000
242,6,32,328.6517,9.7479,TI_4,threat,0,VELVET,parlor,TI,H,HI_Hi,2.2193,NR,NR,NR,999.0000
243,6,33,338.4364,9.0520,F,threat,0,SAXOPHONE,foil,F,CR,CR,1.4250,NR,NR,NR,999.0000
244,6,34,347.5248,9.2680,TO_2,threat,0,DAISY,bullring,TO,H,HO_Lo,1.8597,NR,NR,NR,999.0000
245,6,35,356.8290,11.6744,F,threat,0,ROSE,foil,TO,FA,FAO_Lo,2.7655,NR,NR,NR,999.0000
246,6,36,368.5393,12.3185,TO_2,threat,0,MILK,rock_arch,TI,SM,SMO_Lo,2.2019,NR,NR,NR,999.0000
247,6,37,380.8948,9.3666,TO_2,threat,0,BROOM,manufactured_home,TO,H,HO_Lo,1.9390,NR,NR,NR,999.0000
248,6,38,390.2975,9.9826,F,threat,0,JUGGLER,foil,F,CR,CR,1.4667,NR,NR,NR,999.0000
249,6,39,400.3165,11.6138,TI_2,threat,0,ASPIRIN,athletic_field,TO,SM,SMI_Lo,1.5614,NR,NR,NR,999.0000
250,6,40,411.9664,9.1729,TI_4,threat,0,CLAM,optician,TO,SM,SMI_Lo,1.8882,NR,NR,NR,999.0000
251,6,41,421.1756,9.5290,TI_2,threat,0,BANDAGE,bistro,TO,SM,SMI_Lo,2.0832,NR,NR,NR,999.0000
252,6,42,430.7408,9.6276,F,threat,0,CAMEL,foil,TO,FA,FAO_Hi,1.7109,NR,NR,NR,999.0000
