index,run,trial,onset,duration,cond,repType,repCount,word,pic,resp,respRT,ISIresp,ISIrespRT
1,1,1,10.0027,1.9991,WO,4,1,HONEY,crosswalk,UR,1.3147,NR,3.0000
2,1,2,22.0645,-10.0637,WI,4,1,BUCKET,elevator,R,1.8801,NR,3.0000
3,1,3,34.1231,-22.1216,WI,4,1,SPATULA,locker_room,UR,2.1924,NR,3.0000
4,1,4,46.1825,-34.1807,WO,2,1,SHRIMP,orchard,R,1.9773,NR,3.0000
5,1,5,58.2420,-46.2409,WO,4,2,HONEY,crosswalk,UR,1.2015,NR,3.0000
6,1,6,70.3013,-58.2994,WI,4,1,MILK,dining_room,R,1.7823,NR,3.0000
7,1,7,82.3618,-70.3607,WI,2,1,TELEGRAPH,computer_room,UR,1.9285,NR,3.0000
8,1,8,94.4210,-82.4192,WI,4,2,MILK,dining_room,R,1.3374,NR,3.0000
9,1,9,106.4808,-94.4796,WO,4,1,WORM,fishpond,R,1.6808,NR,3.0000
10,1,10,118.5409,-106.5397,WI,4,1,CANDLE,cathedral,R,1.6131,NR,3.0000
11,1,11,130.6001,-118.5979,WI,2,1,SARDINE,riding_arena,UR,1.8623,NR,3.0000
12,1,12,142.6610,-130.6594,WI,4,2,CANDLE,cathedral,R,1.3842,NR,3.0000
13,1,13,154.7208,-142.7192,WO,2,1,BOWL,greenhouse,R,2.4159,NR,3.0000
14,1,14,166.7806,-154.7781,WI,4,2,BUCKET,elevator,R,1.4858,NR,3.0000
15,1,15,178.8411,-166.8392,WI,4,1,KEG,gymnasium,R,2.0014,NR,3.0000
16,1,16,190.9011,-178.8989,WO,4,1,VINE,mountain,R,1.9160,NR,3.0000
17,1,17,202.9620,-190.9607,WI,2,1,NEEDLE,courtroom,UR,2.0258,NR,3.0000
18,1,18,215.0218,-203.0201,WO,4,1,SCORPION,balcony,UR,1.4952,NR,3.0000
19,1,19,227.0817,-215.0805,WI,4,2,KEG,gymnasium,R,0.9122,NR,3.0000
20,1,20,239.1419,-227.1410,WI,2,1,BUTTER,kennel,UR,1.7337,NR,3.0000
21,1,21,251.2012,-239.1991,WO,2,1,SHOWER,garbage_dump,UR,2.0858,NR,3.0000
22,1,22,263.2621,-251.2608,WI,4,2,SPATULA,locker_room,UR,1.7078,NR,3.0000
23,1,23,275.3216,-263.3197,WO,2,1,PLUG,basketball_court,R,1.9432,NR,3.0000
24,1,24,287.3821,-275.3808,WO,4,1,MONKEY,pond,UR,1.7686,NR,3.0000
25,1,25,299.4418,-287.4400,WO,4,1,KALE,corn_field,R,2.5169,NR,3.0000
26,1,26,311.5019,-299.5002,WI,4,1,BEAVER,hospital_room,UR,1.6644,NR,3.0000
27,1,27,323.5617,-311.5605,WO,2,1,BARREL,raceway,UR,2.2423,NR,3.0000
28,1,28,335.6216,-323.6199,WI,2,1,RASH,burial_chamber,UR,2.8799,NR,3.0000
29,1,29,347.6814,-335.6802,WO,4,2,SCORPION,balcony,UR,1.0151,NR,3.0000
30,1,30,359.7411,-347.7391,WO,2,1,ROCK,corral,R,2.0067,NR,3.0000
31,1,31,371.8014,-359.8002,WI,4,2,BEAVER,hospital_room,UR,1.0427,NR,3.0000
32,1,32,383.8616,-371.8596,WO,4,1,BALLOON,islet,UR,1.7926,NR,3.0000
33,1,33,395.9218,-383.9194,WO,4,2,WORM,fishpond,R,1.2601,NR,3.0000
34,1,34,407.9825,-395.9808,WI,4,1,FROG,dentists_office,UR,1.4004,NR,3.0000
35,1,35,420.0431,-408.0410,WO,4,2,MONKEY,pond,UR,2.6298,NR,3.0000
36,1,36,432.1037,-420.1026,WO,4,2,KALE,corn_field,R,1.0597,NR,3.0000
37,1,37,444.1637,-432.1630,WO,2,1,STOOL,moat,UR,1.8529,NR,3.0000
38,1,38,456.2229,-444.2209,WI,4,2,FROG,dentists_office,UR,0.9133,NR,3.0000
39,1,39,468.2832,-456.2817,WI,2,1,GEESE,closet,UR,1.4532,NR,3.0000
40,1,40,480.3435,-468.3424,WO,4,2,VINE,mountain,R,1.5484,NR,3.0000
41,1,41,492.4031,-480.4010,WO,4,2,BALLOON,islet,UR,1.0986,NR,3.0000
42,1,42,504.4644,-492.4632,WI,2,1,LANTERN,baggage_claim,UR,1.4123,NR,3.0000
43,2,19,10.0019,2.0000,WI,2,1,ALLIGATOR,escalator,UR,1.3503,NR,3.0000
44,2,20,22.0611,-10.0589,WO,4,1,SOUP,palace,UR,1.1468,NR,3.0000
45,2,21,34.1195,-22.1178,WO,2,1,TEETH,rope_bridge,UR,1.1620,NR,3.0000
46,2,22,46.1770,-34.1759,WI,2,1,UMBRELLA,art_studio,UR,1.2905,NR,3.0000
47,2,23,58.2337,-46.2315,WO,4,1,SOAP,putting_green,UR,1.4756,NR,3.0000
48,2,24,70.2921,-58.2902,WI,4,1,GOAT,candy_store,UR,1.3218,NR,3.0000
49,2,25,82.3497,-70.3485,WO,4,2,SOUP,palace,UR,1.6878,NR,3.0000
50,2,26,94.4070,-82.4049,WI,4,1,SCOTCH,bazaar,UR,2.1549,NR,3.0000
51,2,27,106.4647,-94.4637,WO,2,1,OYSTER,hayfield,UR,1.1417,NR,3.0000
52,2,28,118.5211,-106.5195,WO,4,1,TORNADO,landing_deck,UR,2.4573,NR,3.0000
53,2,29,130.5789,-118.5778,WI,4,1,TWEEZERS,fastfood_restaurant,UR,1.4860,NR,3.0000
54,2,30,142.6356,-130.6333,WO,4,1,LETTUCE,phone_booth,UR,1.5147,NR,3.0000
55,2,31,154.6942,-142.6933,WO,4,1,WITCH,crevasse,R,1.3277,NR,3.0000
56,2,32,166.7509,-154.7495,WI,2,1,BOAT,chicken_coop,UR,1.4927,NR,3.0000
57,2,33,178.8079,-166.8059,WI,2,1,RUDDER,kitchenette,UR,1.4121,NR,3.0000
58,2,34,190.8659,-178.8643,WI,4,1,COFFEE,clothing_store,UR,1.1099,NR,3.0000
59,2,35,202.9234,-190.9187,WO,4,2,SOAP,putting_green,NR,999.0000,UR,3.3689
60,2,36,214.9843,-202.9821,WI,4,2,COFFEE,clothing_store,UR,0.7740,NR,3.0000
61,2,37,227.0422,-215.0405,WO,4,1,HATCHET,ocean,R,2.7205,NR,3.0000
62,2,38,239.0998,-227.0987,WI,4,1,TROLLEY,television_studio,UR,1.0934,NR,3.0000
63,2,39,251.1573,-239.1563,WI,2,1,HIGHWAY,attic,UR,1.1286,NR,3.0000
64,2,40,263.2142,-251.2134,WO,2,1,CANARY,gas_station,R,1.5985,NR,3.0000
65,2,41,275.2715,-263.2695,WI,2,1,DESK,beauty_salon,R,1.3864,NR,3.0000
66,2,42,287.3292,-275.3277,WO,4,2,WITCH,crevasse,R,0.9076,NR,3.0000
67,2,43,299.3866,-287.3848,WI,4,1,OWL,supermarket,UR,1.1785,NR,3.0000
68,2,44,311.4450,-299.4439,WO,4,1,ACCORDIAN,lock_chamber,UR,1.1767,NR,3.0000
69,2,45,323.5050,-311.5031,WO,2,1,BENCH,pasture,UR,1.6142,NR,3.0000
70,2,46,335.5633,-323.5619,WI,2,1,TOAST,butchers_shop,UR,1.6525,NR,3.0000
71,2,47,347.6204,-335.6184,WO,4,2,LETTUCE,phone_booth,UR,0.9873,NR,3.0000
72,2,48,359.6785,-347.6771,WI,4,2,TROLLEY,television_studio,UR,1.2447,NR,3.0000
73,2,49,371.7362,-359.7353,WO,2,1,FENCE,iceberg,UR,1.1294,NR,3.0000
74,2,50,383.7932,-371.7918,WI,4,2,GOAT,candy_store,UR,0.9877,NR,3.0000
75,2,51,395.8508,-383.8492,WI,4,2,TWEEZERS,fastfood_restaurant,UR,1.3771,NR,3.0000
76,2,52,407.9083,-395.9065,WO,2,1,BRAIN,butte,UR,1.2710,NR,3.0000
77,2,53,419.9658,-407.9645,WO,4,2,TORNADO,landing_deck,UR,2.1984,NR,3.0000
78,2,54,432.0231,-420.0213,WI,4,1,PEARL,bus_interior,UR,1.0677,NR,3.0000
79,2,55,444.0809,-432.0801,WI,4,2,PEARL,bus_interior,UR,1.4819,NR,3.0000
80,2,56,456.1381,-444.1367,WI,4,2,SCOTCH,bazaar,UR,1.1983,NR,3.0000
81,2,57,468.1955,-456.1943,WO,4,2,ACCORDIAN,lock_chamber,UR,0.8118,NR,3.0000
82,2,58,480.2527,-468.2505,WO,4,2,HATCHET,ocean,R,1.0765,NR,3.0000
83,2,59,492.3114,-480.3085,WI,4,2,OWL,supermarket,UR,0.7596,NR,3.0000
84,2,60,504.3702,-492.3689,WO,2,1,WHIP,construction_site,UR,1.3061,NR,3.0000
85,3,37,10.0029,1.9983,WI,4,1,SOOT,volleyball_court,UR,1.6305,NR,3.0000
86,3,38,22.0646,-10.0624,WO,2,1,TABLE,plaza,UR,2.7401,NR,3.0000
87,3,39,175.8867,-163.8857,WI,4,1,APPLE,bookstore,R,2.7828,NR,3.0000
88,3,40,187.9459,-175.9442,WI,2,1,STORK,throne_room,NR,999.0000,NR,3.0000
89,3,41,200.0065,-188.0044,WI,4,1,DRUM,apse,UR,1.6344,NR,3.0000
90,3,42,212.0667,-200.0637,WO,4,1,ASPARAGUS,rice_paddy,UR,1.4662,NR,3.0000
91,3,43,224.1278,-212.1269,WO,4,1,ANT,cabin,R,1.1774,NR,3.0000
92,3,44,236.1875,-224.1855,WO,4,1,PUDDLE,forest_path,R,1.1775,NR,8.9159
93,3,45,248.2481,-236.2462,WI,4,1,CHEESE,aquarium,UR,1.0586,NR,3.0000
94,3,46,260.3090,-248.3076,WO,4,1,PIE,heliport,UR,0.9529,NR,3.0000
95,3,47,272.3689,-260.3679,WI,4,2,DRUM,apse,UR,1.4219,NR,3.0000
96,3,48,284.4282,-272.4261,WO,4,1,OPIUM,watering_hole,UR,1.2727,NR,3.0000
97,3,49,296.4894,-284.4878,WO,4,2,OPIUM,watering_hole,UR,1.4983,NR,3.0000
98,3,50,308.5497,-296.5487,WO,2,1,SHOVEL,hill,R,1.4307,NR,3.0000
99,3,51,320.6098,-308.6088,WI,2,1,POWDER,florist_shop,UR,1.1294,NR,3.0000
100,3,52,332.6692,-320.6673,WO,4,2,ANT,cabin,R,0.7954,NR,3.0000
101,3,53,344.7296,-332.7285,WI,4,1,SAXOPHONE,biology_laboratory,UR,1.2009,NR,3.0000
102,3,54,356.7896,-344.7867,WO,4,2,PUDDLE,forest_path,R,1.1521,NR,3.0000
103,3,55,368.8508,-356.8477,WI,4,2,APPLE,bookstore,UR,1.6169,NR,3.0000
104,3,56,380.9132,-368.9118,WI,2,1,RACQUET,optician,UR,1.4341,NR,3.0000
105,3,57,392.9731,-380.9719,WO,4,1,WALLET,ruin,UR,1.4325,NR,3.0000
106,3,58,405.0330,-393.0303,WO,2,1,CAMERA,hot_tub,UR,1.9813,NR,3.0000
107,3,59,417.0949,-405.0927,WI,4,2,CHEESE,aquarium,UR,0.8924,NR,3.0000
108,3,60,429.1558,-417.1547,WO,4,2,WALLET,ruin,UR,0.9942,NR,3.0000
109,3,61,441.2458,-429.2429,WI,4,1,OTTER,garage,UR,1.2593,NR,3.0000
110,3,62,453.3071,-441.3049,WI,4,1,CLOAK,ice_cream_parlor,UR,1.1739,NR,3.0000
111,3,63,465.3678,-453.3650,WO,2,1,BABY,canyon,UR,1.6630,NR,3.0000
112,3,64,477.4298,-465.4278,WO,2,1,SANDAL,oilrig,UR,1.1473,NR,3.0000
113,3,65,489.4903,-477.4892,WO,2,1,CLAM,bridge,UR,1.6314,NR,3.0000
114,3,66,501.5505,-489.5494,WI,4,2,OTTER,garage,UR,0.8158,NR,3.0000
115,3,67,513.6103,-501.6092,WO,4,2,PIE,heliport,UR,0.9561,R,9.7948
116,3,68,525.6700,-513.6681,WI,2,1,SADDLE,brewery,UR,1.0845,NR,3.0000
117,3,69,537.7311,-525.7297,WI,2,1,DETECTIVE,jacuzzi,UR,0.9867,NR,3.0000
118,3,70,549.7910,-537.7892,WO,4,1,EASEL,forest_needleleaf,UR,1.3858,NR,3.0000
119,3,71,561.8517,-549.8506,WO,4,2,ASPARAGUS,rice_paddy,UR,1.8544,NR,3.0000
120,3,72,573.9116,-561.9105,WI,4,2,SOOT,volleyball_court,UR,1.2141,NR,3.0000
121,3,73,585.9712,-573.9700,WO,2,1,OLIVE,motel,UR,1.3807,NR,3.0000
122,3,74,598.0314,-586.0296,WI,4,2,CLOAK,ice_cream_parlor,UR,1.1324,NR,3.0000
123,3,75,610.0922,-598.0898,WI,4,2,SAXOPHONE,biology_laboratory,UR,1.6148,NR,3.0000
124,3,76,622.1538,-610.1513,WO,4,2,EASEL,forest_needleleaf,UR,1.0819,NR,3.0000
125,3,77,634.2149,-622.2127,WI,2,1,BOOT,ballroom,UR,2.0077,NR,3.0000
126,3,78,646.2757,-634.2737,WI,2,1,NAPKIN,music_studio,UR,2.0127,NR,3.0000
127,4,55,10.0027,1.9993,WI,4,1,ACROBAT,art_gallery,UR,1.3752,NR,3.0000
128,4,56,22.0668,-10.0652,WO,4,1,TULIP,amusement_park,UR,1.4345,NR,3.0000
129,4,57,34.1294,-22.1272,WO,4,1,THONG,outhouse,UR,1.6016,NR,3.0000
130,4,58,46.1924,-34.1905,WO,4,1,NET,boardwalk,UR,1.5420,NR,3.0000
131,4,59,58.2553,-46.2522,WI,4,1,BRACELET,ball_pit,UR,1.2599,NR,3.0000
132,4,60,70.3192,-58.3182,WI,4,2,ACROBAT,art_gallery,UR,1.0858,NR,3.0000
133,4,61,82.3806,-70.3789,WO,4,1,CHERRY,igloo,UR,1.1738,NR,3.0000
134,4,62,94.4435,-82.4416,WO,4,2,THONG,outhouse,UR,1.0707,NR,3.0000
135,4,63,106.5068,-94.5059,WO,2,1,RING,bayou,UR,1.2291,NR,3.0000
136,4,64,118.5688,-106.5668,WI,2,1,BLANKET,restaurant,UR,1.1641,NR,3.0000
137,4,65,130.6316,-118.6306,WI,2,1,RICE,bar,UR,1.3762,NR,3.0000
138,4,66,142.6931,-130.6915,WO,4,1,HAMMER,fire_station,R,1.9307,NR,3.0000
139,4,67,154.7554,-142.7540,WI,4,1,MUFFIN,jail_cell,UR,1.4043,NR,3.0000
140,4,68,166.8174,-154.8163,WO,2,1,BANDAGE,canal,UR,1.5548,NR,3.0000
141,4,69,178.8796,-166.8789,WI,2,1,SNAIL,shoe_shop,UR,1.2707,NR,3.0000
142,4,70,190.9408,-178.9395,WI,4,1,MAGICIAN,bowling_alley,UR,1.6242,NR,3.0000
143,4,71,203.0029,-191.0005,WO,2,1,SUBMARINE,mountain_snowy,UR,1.0723,NR,3.0000
144,4,72,215.0664,-203.0656,WO,2,1,FOX,creek,R,1.4083,NR,3.0000
145,4,73,227.1278,-215.1256,WI,4,2,MUFFIN,jail_cell,UR,1.0476,NR,3.0000
146,4,74,239.1922,-227.1907,WI,4,1,GLOBE,shopping_mall,UR,1.3698,NR,3.0000
147,4,75,251.2547,-239.2533,WI,4,2,BRACELET,ball_pit,UR,2.0530,NR,3.0000
148,4,76,263.3169,-251.3150,WO,2,1,WALNUT,labyrinth,UR,1.3174,NR,3.0000
149,4,77,275.3802,-263.3783,WO,2,1,HOOK,cottage_garden,UR,0.9323,NR,3.0000
150,4,78,287.4431,-275.4412,WO,4,2,HAMMER,fire_station,R,1.6309,NR,3.0000
151,4,79,299.5064,-287.5041,WI,4,1,CARROT,athletic_field,UR,1.3395,NR,3.0000
152,4,80,311.5695,-299.5682,WI,4,1,DOUGHNUT,catacomb,UR,1.2377,NR,3.0000
153,4,81,323.6319,-311.6310,WO,4,2,NET,boardwalk,UR,1.2988,NR,3.0000
154,4,82,335.6943,-323.6933,WO,4,2,CHERRY,igloo,UR,1.2694,NR,3.0000
155,4,83,347.7561,-335.7529,WO,4,1,CUCUMBER,lido_deck,R,1.7968,NR,3.0000
156,4,84,359.8201,-347.8190,WI,4,2,GLOBE,shopping_mall,UR,1.5550,NR,3.0000
157,4,85,371.8818,-359.8798,WI,2,1,CANNON,toyshop,UR,1.8292,NR,3.0000
158,4,86,383.9447,-371.9437,WO,4,2,CUCUMBER,lido_deck,R,1.0220,NR,3.0000
159,4,87,396.0071,-384.0060,WI,2,1,HARPOON,library,UR,1.7916,NR,3.0000
160,4,88,408.0691,-396.0674,WO,4,1,WALRUS,aqueduct,UR,2.0787,NR,3.0000
161,4,89,420.1319,-408.1298,WO,4,2,WALRUS,aqueduct,UR,0.9139,NR,3.0000
162,4,90,432.1949,-420.1934,WI,4,2,CARROT,athletic_field,UR,0.8071,NR,3.0000
163,4,91,444.2573,-432.2556,WI,2,1,CRADLE,dorm_room,UR,1.6876,NR,3.0000
164,4,92,456.3203,-444.3185,WI,2,1,CRAB,tennis_court,UR,1.0688,NR,3.0000
165,4,93,468.3831,-456.3820,WO,4,2,TULIP,amusement_park,UR,1.8002,NR,3.0000
166,4,94,480.4457,-468.4447,WI,4,2,DOUGHNUT,catacomb,UR,1.8255,NR,3.0000
167,4,95,492.5077,-480.5059,WO,2,1,SOCK,dam,UR,1.5021,NR,3.0000
168,4,96,504.5703,-492.5689,WI,4,2,MAGICIAN,bowling_alley,UR,1.5285,NR,3.0000
169,5,73,10.0017,1.9995,WO,4,1,OMELET,manufactured_home,UR,1.6342,NR,3.0000
170,5,74,22.0624,-10.0604,WI,4,1,ORANGE,parking_garage,R,2.6860,NR,3.0000
171,5,75,34.1228,-22.1199,WI,4,1,BANANA,bakery,R,2.1035,NR,3.0000
172,5,76,46.1827,-34.1803,WI,2,1,CANDY,laundromat,UR,1.8877,NR,3.0000
173,5,77,58.2422,-46.2404,WO,2,1,TRIBE,hangar,UR,1.6745,NR,3.0000
174,5,78,70.3013,-58.3000,WI,2,1,MEDAL,restaurant_kitchen,UR,2.0762,NR,3.0000
175,5,79,82.3599,-70.3582,WO,4,2,OMELET,manufactured_home,UR,1.3933,NR,3.0000
176,5,80,94.4185,-82.4168,WI,4,1,KILT,car_interior,UR,1.9526,NR,3.0000
177,5,81,106.4777,-94.4763,WO,4,1,PANTS,cliff,UR,1.9328,NR,3.0000
178,5,82,118.5361,-106.5349,WI,4,1,HAM,museum,NR,999.0000,UR,3.1075
179,5,83,130.5951,-118.5934,WI,4,1,TOWEL,natural_history_museum,UR,1.0582,NR,3.0000
180,5,84,142.6552,-130.6536,WO,4,1,EAGLE,inn,UR,1.3274,NR,3.0000
181,5,85,154.7139,-142.7105,WO,4,1,WHEAT,patio,UR,2.3719,NR,3.0000
182,5,86,166.7747,-154.7720,WO,2,1,ARROW,power_plant,UR,1.4633,NR,3.0000
183,5,87,178.8347,-166.8327,WI,4,2,ORANGE,parking_garage,R,1.2628,NR,3.0000
184,5,88,190.8944,-178.8925,WO,4,1,SUNBURN,marsh,UR,1.5257,NR,3.0000
185,5,89,202.9534,-190.9523,WO,2,1,FORK,playground,UR,1.8198,NR,3.0000
186,5,90,215.0117,-203.0109,WI,4,1,RAKE,lobby,UR,1.6526,NR,3.0000
187,5,91,227.0699,-215.0684,WI,4,2,TOWEL,natural_history_museum,UR,1.4385,NR,3.0000
188,5,92,239.1284,-227.1269,WO,4,1,ORCHID,beach,UR,1.3818,NR,3.0000
189,5,93,251.1874,-239.1844,WO,4,2,ORCHID,beach,UR,1.2677,NR,3.0000
190,5,94,263.2477,-251.2469,WI,4,2,RAKE,lobby,UR,1.5751,NR,3.0000
191,5,95,275.3055,-263.3034,WO,4,1,MITTEN,driving_range,UR,1.3358,NR,3.0000
192,5,96,287.3652,-275.3626,WO,4,2,SUNBURN,marsh,UR,1.2787,NR,3.0000
193,5,97,299.4251,-287.4231,WO,4,2,MITTEN,driving_range,NR,999.0000,NR,3.0000
194,5,98,311.4851,-299.4832,WI,2,1,MOON,banquet_hall,UR,1.4162,NR,3.0000
195,5,99,323.5440,-311.5426,WI,4,1,PASSPORT,nursery,UR,1.7850,NR,3.0000
196,5,100,335.6026,-323.6008,WO,2,1,TRAY,mosque,UR,1.3655,NR,3.0000
197,5,101,347.6623,-335.6616,WO,2,1,NEST,bamboo_forest,UR,1.6628,NR,3.0000
198,5,102,359.7201,-347.7182,WI,4,2,PASSPORT,nursery,UR,1.4753,NR,3.0000
199,5,103,371.7796,-359.7782,WI,2,1,NIGHTGOWN,engine_room,UR,1.4773,NR,3.0000
200,5,104,383.8380,-371.8351,WO,4,2,PANTS,cliff,UR,2.2099,NR,3.0000
201,5,105,395.8982,-383.8962,WI,2,1,FIDDLE,airplane_cabin,R,2.2946,NR,3.0000
202,5,106,407.9577,-395.9544,WI,2,1,ELEPHANT,boxing_ring,UR,1.4756,NR,3.0000
203,5,107,420.0184,-408.0166,WO,4,2,WHEAT,patio,UR,1.5949,NR,3.0000
204,5,108,432.0780,-420.0761,WO,4,2,EAGLE,inn,UR,2.1312,NR,3.0000
205,5,109,444.1374,-432.1359,WO,2,1,VELVET,mausoleum,UR,1.9970,NR,3.0000
206,5,110,456.1961,-444.1942,WI,4,2,HAM,museum,UR,1.3762,NR,3.0000
207,5,111,468.2558,-456.2528,WI,4,2,BANANA,bakery,R,1.3653,NR,3.0000
208,5,112,480.3160,-468.3141,WI,4,2,KILT,car_interior,UR,1.5671,NR,3.0000
209,5,113,492.3759,-480.3750,WO,2,1,YACHT,desert,UR,1.6084,NR,3.0000
210,5,114,504.4342,-492.4316,WI,2,1,SLIPPER,synagogue,R,2.2327,NR,3.0000
211,6,91,10.0026,1.9990,WO,4,1,ORNAMENT,pagoda,R,1.8577,NR,3.0000
212,6,92,22.0688,-10.0666,WI,2,1,DAISY,game_room,UR,1.5784,NR,3.0000
213,6,93,34.1346,-22.1329,WO,2,1,SHELL,basilica,UR,1.4237,NR,3.0000
214,6,94,46.1997,-34.1985,WI,4,1,HOSE,badminton_court,UR,1.6266,NR,3.0000
215,6,95,58.2641,-46.2621,WO,2,1,KNIFE,kasbah,R,1.8115,NR,3.0000
216,6,96,70.3297,-58.3285,WI,4,1,PASTE,movie_theater,UR,1.5921,NR,3.0000
217,6,97,82.3939,-70.3920,WI,4,1,OATMEAL,orchestra_pit,UR,1.1458,NR,3.0000
218,6,98,94.4596,-82.4568,WI,4,1,SCISSORS,theater,UR,0.9898,NR,3.0000
219,6,99,106.5255,-94.5230,WO,4,1,TROPHY,ice_shelf,UR,2.0629,NR,3.0000
220,6,100,118.5916,-106.5894,WO,4,1,CROWN,fountain,UR,1.3116,NR,3.0000
221,6,101,130.6575,-118.6566,WI,4,1,DIAMOND,bedroom,UR,1.5697,NR,3.0000
222,6,102,142.7215,-130.7182,WO,4,1,STAPLER,carrousel,UR,1.1820,NR,3.0000
223,6,103,154.7887,-142.7867,WO,4,1,VIOLIN,railroad_track,UR,1.8303,NR,3.0000
224,6,104,166.8540,-154.8527,WI,4,2,SCISSORS,theater,UR,1.3145,NR,3.0000
225,6,105,178.9187,-166.9172,WI,2,1,WRENCH,auto_factory,R,1.3344,NR,3.0000
226,6,106,190.9838,-178.9827,WO,4,2,CROWN,fountain,UR,1.3322,NR,3.0000
227,6,107,203.0483,-191.0469,WI,2,1,TYPEWRITER,stage,UR,1.2341,NR,3.0000
228,6,108,215.1128,-203.1102,WO,4,1,BATON,park,UR,1.4083,NR,3.0000
229,6,109,227.1786,-215.1774,WO,4,1,LIME,river,UR,1.1057,NR,5.2865
230,6,110,239.2432,-227.2409,WI,4,2,HOSE,badminton_court,UR,1.4010,NR,3.0000
231,6,111,251.3093,-239.3082,WI,4,2,OATMEAL,orchestra_pit,UR,1.5442,NR,3.0000
232,6,112,263.3735,-251.3723,WI,4,1,ARMOR,archive,UR,1.5226,NR,3.0000
233,6,113,275.4386,-263.4378,WO,2,1,CAMEL,arch,UR,1.5711,NR,3.0000
234,6,114,287.5028,-275.5014,WO,2,1,SWORD,boathouse,UR,1.7579,NR,3.0000
235,6,115,299.5682,-287.5665,WI,2,1,HAWK,jewelry_shop,UR,2.1684,NR,3.0000
236,6,116,311.6337,-299.6325,WI,4,2,PASTE,movie_theater,UR,1.6239,NR,3.0000
237,6,117,323.6982,-311.6975,WO,4,2,BATON,park,UR,2.8629,NR,3.0000
238,6,118,335.7629,-323.7620,WO,2,1,WAND,campsite,UR,1.6641,NR,3.0000
239,6,119,347.8273,-335.8258,WO,4,2,LIME,river,UR,1.8551,NR,3.0000
240,6,120,359.8926,-347.8915,WI,4,1,PEDAL,limousine_interior,UR,2.8432,NR,3.0000
241,6,121,371.9572,-359.9560,WI,4,2,DIAMOND,bedroom,UR,1.7943,NR,3.0000
242,6,122,384.0218,-372.0201,WO,4,2,ORNAMENT,pagoda,R,1.5895,NR,3.0000
243,6,123,396.0874,-384.0855,WI,2,1,FLASK,kindergarden_classroom,UR,1.5407,NR,3.0000
244,6,124,408.1528,-396.1516,WI,4,2,ARMOR,archive,UR,1.4909,NR,3.0000
245,6,125,420.2176,-408.2166,WI,2,1,PYTHON,assembly_line,UR,2.0282,NR,3.0000
246,6,126,432.2825,-420.2806,WO,2,1,MUSTARD,ice_floe,UR,1.4698,NR,3.0000
247,6,127,444.3479,-432.3445,WI,4,2,PEDAL,limousine_interior,UR,1.6585,NR,3.0000
248,6,128,456.4154,-444.4135,WO,4,2,VIOLIN,railroad_track,UR,1.5136,NR,3.0000
249,6,129,468.4807,-456.4792,WO,4,2,STAPLER,carrousel,UR,1.5371,NR,3.0000
250,6,130,480.5458,-468.5438,WO,4,2,TROPHY,ice_shelf,UR,1.4734,NR,3.0000
251,6,131,492.6116,-480.6105,WI,2,1,DRUG,reception,R,2.3836,NR,3.0000
252,6,132,504.6761,-492.6744,WO,2,1,HELMET,lighthouse,UR,1.6428,NR,3.0000
253,7,109,10.0027,1.9986,WI,2,2,LANTERN,baggage_claim,UR,1.1060,NR,3.0000
254,7,110,22.0679,-10.0657,WI,4,3,BUCKET,elevator,R,2.7297,NR,3.0000
255,7,111,34.1324,-22.1302,WO,4,3,HONEY,crosswalk,UR,1.7979,NR,3.0000
256,7,112,46.1976,-34.1953,WO,4,3,KALE,corn_field,R,1.2442,NR,3.0000
257,7,113,58.2625,-46.2611,WI,4,3,FROG,dentists_office,UR,1.0709,NR,3.0000
258,7,114,70.3269,-58.3242,WO,4,3,MONKEY,pond,UR,1.3007,NR,3.0000
259,7,115,82.3919,-70.3912,WI,2,2,BUTTER,kennel,UR,1.2686,NR,3.0000
260,7,116,94.4550,-82.4529,WI,4,3,BEAVER,hospital_room,UR,0.7992,NR,3.0000
261,7,117,106.5207,-94.5199,WI,4,3,SPATULA,locker_room,UR,0.9543,NR,3.0000
262,7,118,118.5838,-106.5823,WO,4,3,SCORPION,balcony,UR,1.8093,NR,3.0000
263,7,119,130.6479,-118.6467,WI,2,2,GEESE,closet,UR,1.7438,NR,3.0000
264,7,120,142.7113,-130.7095,WI,4,3,CANDLE,cathedral,R,1.3348,NR,3.0000
265,7,121,154.7755,-142.7743,WO,2,2,STOOL,moat,UR,1.1505,NR,3.0000
266,7,122,166.8397,-154.8381,WO,4,4,KALE,corn_field,R,0.7897,NR,3.0000
267,7,123,178.9034,-166.9012,WI,2,2,SARDINE,riding_arena,UR,1.5654,NR,3.0000
268,7,124,190.9685,-178.9663,WO,2,2,SHRIMP,orchard,UR,2.6821,NR,3.0000
269,7,125,203.0331,-191.0321,WO,4,3,VINE,mountain,R,1.2532,NR,3.0000
270,7,126,215.0966,-203.0955,WI,2,2,RASH,burial_chamber,UR,1.4262,NR,3.0000
271,7,127,227.1606,-215.1587,WO,4,3,WORM,fishpond,R,0.8975,NR,3.0000
272,7,128,239.2247,-227.2239,WO,4,4,VINE,mountain,R,1.2634,NR,3.0000
273,7,129,251.2887,-239.2867,WO,2,2,BARREL,raceway,UR,1.6770,NR,3.0000
274,7,130,263.3533,-251.3518,WI,4,3,KEG,gymnasium,R,1.0570,NR,3.0000
275,7,131,275.4171,-263.4158,WI,4,3,MILK,dining_room,R,2.5200,NR,3.0000
276,7,132,287.4808,-275.4790,WO,4,4,SCORPION,balcony,UR,0.9648,NR,3.0000
277,7,133,299.5449,-287.5431,WO,4,4,WORM,fishpond,R,1.0590,NR,3.0000
278,7,134,311.6096,-299.6068,WI,4,4,BEAVER,hospital_room,UR,0.8101,NR,3.0000
279,7,135,323.6751,-311.6742,WI,2,2,NEEDLE,courtroom,UR,1.0806,NR,3.0000
280,7,136,335.7382,-323.7373,WO,2,2,ROCK,corral,R,1.2384,NR,3.0000
281,7,137,347.8022,-335.8003,WI,4,4,MILK,dining_room,R,0.9245,NR,3.0000
282,7,138,359.8664,-347.8646,WO,4,4,MONKEY,pond,UR,1.2447,NR,3.0000
283,7,139,371.9312,-359.9299,WI,4,4,FROG,dentists_office,UR,0.8248,NR,3.0000
284,7,140,383.9952,-371.9943,WI,4,4,SPATULA,locker_room,UR,1.0530,NR,3.0000
285,7,141,396.0593,-384.0585,WO,2,2,SHOWER,garbage_dump,UR,0.9969,NR,3.0000
286,7,142,408.1232,-396.1218,WO,4,3,BALLOON,islet,UR,0.9985,NR,3.0000
287,7,143,420.1870,-408.1851,WI,4,4,CANDLE,cathedral,R,0.9671,NR,3.0000
288,7,144,432.2520,-420.2507,WO,2,2,BOWL,greenhouse,R,1.4258,NR,3.0000
289,7,145,444.3157,-432.3137,WI,4,4,BUCKET,elevator,R,2.0962,NR,3.0000
290,7,146,456.3804,-444.3785,WO,2,2,PLUG,basketball_court,R,1.2392,NR,3.0000
291,7,147,468.4453,-456.4437,WI,2,2,TELEGRAPH,computer_room,UR,1.0547,NR,3.0000
292,7,148,480.5095,-468.5078,WO,4,4,BALLOON,islet,UR,0.9841,NR,3.0000
293,7,149,492.5743,-480.5724,WO,4,4,HONEY,crosswalk,UR,1.1382,NR,3.0000
294,7,150,504.6387,-492.6371,WI,4,4,KEG,gymnasium,R,1.0258,NR,3.0000
295,8,127,10.0033,1.9983,WO,4,3,LETTUCE,phone_booth,UR,1.1324,NR,3.0000
296,8,128,22.0699,-10.0679,WI,4,3,TROLLEY,television_studio,UR,1.0521,NR,3.0000
297,8,129,34.1346,-22.1328,WO,4,3,SOUP,palace,UR,1.0039,NR,3.0000
298,8,130,46.1990,-34.1972,WO,4,3,SOAP,putting_green,UR,1.8221,NR,3.0000
299,8,131,58.2637,-46.2618,WI,2,2,HIGHWAY,attic,UR,0.9548,NR,3.0000
300,8,132,70.3284,-58.3261,WI,2,2,RUDDER,kitchenette,UR,1.3230,NR,3.0000
301,8,133,82.3939,-70.3912,WI,4,4,TROLLEY,television_studio,UR,1.9198,NR,3.0000
302,8,134,94.4595,-82.4580,WO,4,3,ACCORDIAN,lock_chamber,UR,1.1125,NR,3.0000
303,8,135,106.5237,-94.5227,WI,4,3,COFFEE,clothing_store,UR,1.3925,NR,3.0000
304,8,136,118.5880,-106.5857,WO,2,2,CANARY,gas_station,R,1.8441,NR,3.0000
305,8,137,130.6530,-118.6501,WO,4,4,SOUP,palace,UR,1.1281,UR,3.4355
306,8,138,142.7191,-130.7173,WI,2,2,UMBRELLA,art_studio,UR,1.8809,NR,3.0000
307,8,139,154.7838,-142.7823,WI,4,3,GOAT,candy_store,UR,1.1441,NR,3.0000
308,8,140,166.8481,-154.8473,WO,2,2,TEETH,rope_bridge,UR,1.1063,NR,3.0000
309,8,141,178.9122,-166.9103,WI,4,4,COFFEE,clothing_store,UR,0.8037,NR,3.0000
310,8,142,190.9769,-178.9751,WI,4,4,GOAT,candy_store,UR,0.8734,NR,3.0000
311,8,143,203.0421,-191.0412,WI,2,2,DESK,beauty_salon,UR,0.9014,NR,3.0000
312,8,144,215.1060,-203.1042,WO,4,3,HATCHET,ocean,R,1.0031,NR,3.0000
313,8,145,227.1716,-215.1708,WI,4,3,TWEEZERS,fastfood_restaurant,UR,1.0729,NR,3.0000
314,8,146,239.2358,-227.2336,WI,2,2,ALLIGATOR,escalator,UR,2.6543,NR,3.0000
315,8,147,251.3007,-239.2999,WO,4,4,ACCORDIAN,lock_chamber,UR,1.0512,NR,3.0000
316,8,148,263.3651,-251.3624,WO,2,2,FENCE,iceberg,UR,2.0878,NR,3.0000
317,8,149,275.4306,-263.4286,WO,4,3,TORNADO,landing_deck,UR,0.8644,NR,3.0000
318,8,150,287.4958,-275.4939,WI,4,4,TWEEZERS,fastfood_restaurant,UR,0.9997,NR,3.0000
319,8,151,299.5609,-287.5598,WO,2,2,BENCH,pasture,UR,1.1785,NR,3.0000
320,8,152,311.6251,-299.6231,WO,2,2,WHIP,construction_site,UR,1.7560,NR,3.0000
321,8,153,323.6904,-311.6891,WO,4,3,WITCH,crevasse,UR,0.8897,NR,3.0000
322,8,154,335.7549,-323.7535,WI,4,3,SCOTCH,bazaar,UR,1.1519,NR,3.0000
323,8,155,347.8194,-335.8178,WI,4,4,SCOTCH,bazaar,UR,1.7874,NR,3.0000
324,8,156,359.8839,-347.8831,WO,4,4,SOAP,putting_green,UR,1.8882,NR,3.0000
325,8,157,371.9477,-359.9457,WO,4,4,LETTUCE,phone_booth,UR,1.3540,NR,3.0000
326,8,158,384.0133,-372.0112,WI,4,3,PEARL,bus_interior,UR,0.8769,NR,3.0000
327,8,159,396.0785,-384.0773,WI,4,3,OWL,supermarket,UR,1.2852,NR,3.0000
328,8,160,408.1435,-396.1421,WO,4,4,HATCHET,ocean,R,1.3307,NR,3.0000
329,8,161,420.2085,-408.2070,WI,2,2,TOAST,butchers_shop,UR,1.1701,NR,3.0000
330,8,162,432.2733,-420.2718,WI,2,2,BOAT,chicken_coop,UR,0.8343,NR,3.0000
331,8,163,444.3382,-432.3366,WO,2,2,BRAIN,butte,UR,1.2485,NR,3.0000
332,8,164,456.4030,-444.4022,WO,4,4,WITCH,crevasse,R,2.9485,R,3.0787
333,8,165,468.4669,-456.4654,WI,4,4,OWL,supermarket,UR,0.8201,NR,3.0000
334,8,166,480.5333,-468.5311,WO,4,4,TORNADO,landing_deck,UR,1.3855,NR,3.0000
335,8,167,492.5988,-480.5970,WI,4,4,PEARL,bus_interior,UR,0.8970,NR,3.0000
336,8,168,504.6643,-492.6630,WO,2,2,OYSTER,hayfield,UR,1.1595,NR,3.0000
337,9,145,10.0034,1.9984,WO,4,3,OPIUM,watering_hole,UR,2.4013,NR,3.0000
338,9,146,22.0682,-10.0675,WO,4,3,PUDDLE,forest_path,R,1.5653,NR,3.0000
339,9,147,34.1294,-22.1281,WI,2,2,BOOT,ballroom,UR,1.1003,NR,3.0000
340,9,148,46.1915,-34.1892,WO,2,2,TABLE,plaza,UR,2.2851,NR,3.0000
341,9,149,58.2544,-46.2527,WI,2,2,STORK,throne_room,UR,1.8358,NR,3.0000
342,9,150,70.3168,-58.3156,WI,4,3,DRUM,apse,UR,2.5250,UR,7.2565
343,9,151,82.3793,-70.3785,WI,4,3,CLOAK,ice_cream_parlor,UR,1.0323,NR,3.0000
344,9,152,94.4407,-82.4387,WO,4,3,PIE,heliport,UR,1.0348,NR,3.0000
345,9,153,106.5034,-94.5022,WO,2,2,SANDAL,oilrig,UR,0.9644,NR,3.0000
346,9,154,118.5651,-106.5639,WO,4,3,ANT,cabin,R,2.6766,NR,3.0000
347,9,155,130.6270,-118.6255,WI,4,3,APPLE,bookstore,NR,999.0000,UR,3.1537
348,9,156,142.6895,-130.6876,WO,4,4,ANT,cabin,R,0.9488,NR,3.0000
349,9,157,154.7519,-142.7512,WO,4,3,WALLET,ruin,UR,1.4529,NR,3.0000
350,9,158,166.8136,-154.8117,WI,4,3,SAXOPHONE,biology_laboratory,UR,1.2526,NR,3.0000
351,9,159,178.8760,-166.8740,WO,4,3,EASEL,forest_needleleaf,UR,1.0352,NR,3.0000
352,9,160,190.9386,-178.9373,WO,4,4,WALLET,ruin,UR,1.1218,NR,3.0000
353,9,161,203.0009,-190.9995,WI,4,4,CLOAK,ice_cream_parlor,UR,0.9078,NR,3.0000
354,9,162,215.0629,-203.0613,WI,2,2,POWDER,florist_shop,UR,1.1103,NR,3.0000
355,9,163,227.1255,-215.1241,WO,2,2,SHOVEL,hill,UR,0.9235,NR,3.0000
356,9,164,239.1873,-227.1852,WO,2,2,OLIVE,motel,UR,1.6511,NR,3.0000
357,9,165,251.2501,-239.2480,WI,4,4,DRUM,apse,UR,1.1947,NR,3.0000
358,9,166,263.3135,-251.3118,WO,2,2,CAMERA,hot_tub,UR,0.8533,NR,3.0000
359,9,167,275.3759,-263.3748,WI,4,4,SAXOPHONE,biology_laboratory,UR,0.8482,NR,3.0000
360,9,168,287.4382,-275.4367,WI,4,3,CHEESE,aquarium,UR,2.3767,NR,3.0000
361,9,169,299.5004,-287.4989,WI,4,3,SOOT,volleyball_court,UR,0.8514,NR,3.0000
362,9,170,311.5625,-299.5611,WO,4,4,PIE,heliport,UR,1.6474,NR,3.0000
363,9,171,323.6246,-311.6238,WI,2,2,SADDLE,brewery,UR,1.2297,NR,3.0000
364,9,172,335.6862,-323.6843,WI,2,2,RACQUET,optician,UR,2.0282,NR,3.0000
365,9,173,347.7487,-335.7478,WO,4,4,EASEL,forest_needleleaf,UR,2.7264,NR,3.0000
366,9,174,359.8102,-347.8088,WI,2,2,NAPKIN,music_studio,UR,0.9196,NR,3.0000
367,9,175,371.8723,-359.8711,WO,4,4,OPIUM,watering_hole,UR,1.7180,NR,3.0000
368,9,176,383.9347,-371.9329,WI,4,4,APPLE,bookstore,UR,1.3855,NR,3.0000
369,9,177,395.9973,-383.9957,WO,4,4,PUDDLE,forest_path,R,1.3880,NR,3.0000
370,9,178,408.0603,-396.0590,WI,4,3,OTTER,garage,UR,1.7465,NR,3.0000
371,9,179,420.1225,-408.1206,WI,4,4,OTTER,garage,UR,1.3967,NR,3.0000
372,9,180,432.1850,-420.1842,WO,2,2,CLAM,bridge,UR,1.4304,NR,3.0000
373,9,181,444.2471,-432.2455,WI,4,4,SOOT,volleyball_court,UR,1.0363,NR,3.0000
374,9,182,456.3095,-444.3081,WI,2,2,DETECTIVE,jacuzzi,UR,2.5212,NR,3.0000
375,9,183,468.3722,-456.3708,WO,4,3,ASPARAGUS,rice_paddy,UR,1.4265,NR,3.0000
376,9,184,480.4344,-468.4327,WI,4,4,CHEESE,aquarium,UR,1.0559,NR,3.0000
377,9,185,492.4970,-480.4948,WO,4,4,ASPARAGUS,rice_paddy,UR,0.8884,NR,3.0000
378,9,186,504.5606,-492.5584,WO,2,2,BABY,canyon,UR,1.1642,NR,3.0000
379,10,163,10.0030,1.9978,WI,4,3,GLOBE,shopping_mall,UR,1.7253,NR,3.0000
380,10,164,22.0645,-10.0628,WO,2,2,SOCK,dam,UR,1.9705,NR,3.0000
381,10,165,34.1257,-22.1242,WO,2,2,HOOK,cottage_garden,UR,1.7257,NR,3.0000
382,10,166,46.1861,-34.1837,WO,4,3,TULIP,amusement_park,UR,2.4094,NR,3.0000
383,10,167,58.2474,-46.2441,WI,4,3,BRACELET,ball_pit,UR,1.2934,NR,3.0000
384,10,168,70.3099,-58.3074,WI,4,3,MAGICIAN,bowling_alley,NR,999.0000,UR,3.6592
385,10,169,82.3711,-70.3679,WI,4,3,DOUGHNUT,catacomb,UR,2.0041,NR,3.0000
386,10,170,94.4337,-82.4323,WO,2,2,SUBMARINE,mountain_snowy,UR,1.2599,NR,3.0000
387,10,171,106.4940,-94.4923,WI,2,2,CRADLE,dorm_room,UR,1.6458,NR,3.0000
388,10,172,118.5545,-106.5538,WO,4,3,THONG,outhouse,UR,1.8687,NR,3.0000
389,10,173,130.6144,-118.6127,WO,4,3,NET,boardwalk,UR,1.7715,NR,3.0000
390,10,174,142.6749,-130.6733,WI,4,3,CARROT,athletic_field,UR,1.8967,NR,3.0000
391,10,175,154.7358,-142.7329,WO,4,3,HAMMER,fire_station,R,2.0862,NR,3.0000
392,10,176,166.7974,-154.7957,WI,4,4,DOUGHNUT,catacomb,UR,1.6448,NR,3.0000
393,10,177,178.8581,-166.8564,WO,4,4,THONG,outhouse,UR,1.8920,NR,3.0000
394,10,178,190.9191,-178.9159,WI,4,3,MUFFIN,jail_cell,UR,1.5801,NR,3.0000
395,10,179,202.9815,-190.9802,WI,2,2,BLANKET,restaurant,UR,1.7747,NR,3.0000
396,10,180,215.0421,-203.0403,WO,2,2,FOX,creek,R,2.3283,NR,3.0000
397,10,181,227.1028,-215.1014,WO,4,3,WALRUS,aqueduct,UR,2.3679,NR,3.0000
398,10,182,239.1633,-227.1617,WI,4,4,MAGICIAN,bowling_alley,UR,2.1724,NR,3.0000
399,10,183,251.2242,-239.2222,WI,2,2,SNAIL,shoe_shop,UR,1.4652,NR,3.0000
400,10,184,263.2852,-251.2836,WI,2,2,CANNON,toyshop,UR,2.4710,NR,3.0000
401,10,185,275.3464,-263.3450,WO,4,3,CHERRY,igloo,UR,1.9019,NR,3.0000
402,10,186,287.4070,-275.4047,WI,4,3,ACROBAT,art_gallery,UR,2.0194,NR,3.0000
403,10,187,299.4685,-287.4665,WI,2,2,RICE,bar,UR,1.5018,NR,3.0000
404,10,188,311.5305,-299.5286,WO,4,4,TULIP,amusement_park,UR,1.2367,NR,3.0000
405,10,189,323.5913,-311.5901,WO,4,4,HAMMER,fire_station,R,1.3883,NR,3.0000
406,10,190,335.6521,-323.6511,WI,4,4,ACROBAT,art_gallery,UR,1.1989,NR,3.0000
407,10,191,347.7121,-335.7113,WO,4,4,CHERRY,igloo,UR,1.4159,NR,3.0000
408,10,192,359.7734,-347.7711,WO,2,2,RING,bayou,UR,1.1111,NR,3.0000
409,10,193,371.8353,-359.8344,WI,4,4,MUFFIN,jail_cell,UR,1.0780,NR,3.0000
410,10,194,383.8956,-371.8944,WI,2,2,CRAB,tennis_court,UR,1.3059,NR,3.0000
411,10,195,395.9563,-383.9550,WO,4,4,WALRUS,aqueduct,UR,1.6925,NR,3.0000
412,10,196,408.0168,-396.0151,WO,4,3,CUCUMBER,lido_deck,R,1.8523,NR,3.0000
413,10,197,420.0775,-408.0761,WI,4,4,BRACELET,ball_pit,UR,0.9691,NR,3.0000
414,10,198,432.1384,-420.1374,WI,4,4,GLOBE,shopping_mall,UR,2.2378,NR,3.0000
415,10,199,444.1985,-432.1979,WI,4,4,CARROT,athletic_field,NR,999.0000,UR,3.0437
416,10,200,456.2591,-444.2575,WO,2,2,BANDAGE,canal,UR,1.4749,NR,3.0000
417,10,201,468.3199,-456.3178,WO,4,4,NET,boardwalk,UR,1.7845,NR,3.0000
418,10,202,480.3811,-468.3788,WO,4,4,CUCUMBER,lido_deck,R,1.1798,NR,3.0000
419,10,203,492.4429,-480.4417,WI,2,2,HARPOON,library,UR,1.5627,NR,3.0000
420,10,204,504.5033,-492.5025,WO,2,2,WALNUT,labyrinth,UR,1.6710,NR,3.0000
421,11,181,10.0032,2.0001,WI,4,3,RAKE,lobby,UR,1.1335,NR,3.0000
422,11,182,22.0761,-10.0745,WO,2,2,FORK,playground,UR,2.3926,NR,3.0000
423,11,183,34.1447,-22.1429,WO,2,2,ARROW,power_plant,UR,1.0269,NR,3.0000
424,11,184,46.2138,-34.2116,WO,4,3,MITTEN,driving_range,UR,0.9014,NR,3.0000
425,11,185,58.2837,-46.2818,WI,2,2,MEDAL,restaurant_kitchen,UR,2.6335,NR,3.0000
426,11,186,70.3529,-58.3515,WI,4,3,KILT,car_interior,UR,1.5979,NR,3.0000
427,11,187,82.4219,-70.4198,WI,2,2,MOON,banquet_hall,UR,1.4560,NR,3.0000
428,11,188,94.4911,-82.4893,WO,2,2,YACHT,desert,UR,1.2217,NR,3.0000
429,11,189,106.5601,-94.5587,WI,4,3,HAM,museum,UR,1.0259,NR,3.0000
430,11,190,118.6292,-106.6276,WO,4,3,SUNBURN,marsh,UR,1.3299,NR,3.0000
431,11,191,130.6981,-118.6953,WI,2,2,SLIPPER,synagogue,R,1.1541,NR,3.0000
432,11,192,142.7684,-130.7667,WI,4,3,PASSPORT,nursery,UR,1.1029,NR,3.0000
433,11,193,154.8375,-142.8359,WI,2,2,ELEPHANT,boxing_ring,UR,0.9966,NR,3.0000
434,11,194,166.9064,-154.9047,WO,4,3,PANTS,cliff,UR,1.7673,NR,3.0000
435,11,195,178.9757,-166.9733,WI,4,3,BANANA,bakery,R,1.1986,NR,3.0000
436,11,196,191.0453,-179.0442,WI,4,4,KILT,car_interior,UR,1.2758,NR,3.0000
437,11,197,203.1141,-191.1124,WO,4,3,ORCHID,beach,UR,2.8757,NR,3.0000
438,11,198,215.1830,-203.1807,WO,2,2,NEST,bamboo_forest,UR,1.5907,NR,3.0000
439,11,199,227.2525,-215.2504,WO,4,3,WHEAT,patio,UR,1.2152,NR,3.0000
440,11,200,239.3221,-227.3207,WI,4,3,ORANGE,parking_garage,R,2.0294,NR,3.0000
441,11,201,251.3908,-239.3898,WO,4,3,EAGLE,inn,UR,1.1030,NR,3.0000
442,11,202,263.4596,-251.4579,WO,4,4,EAGLE,inn,UR,1.5407,NR,3.0000
443,11,203,275.5285,-263.5273,WO,4,4,SUNBURN,marsh,UR,1.0364,NR,3.0000
444,11,204,287.5968,-275.5946,WI,2,2,FIDDLE,airplane_cabin,R,1.7050,NR,3.0000
445,11,205,299.6668,-287.6661,WI,2,2,NIGHTGOWN,engine_room,UR,1.9970,NR,3.0000
446,11,206,311.7349,-299.7330,WO,4,4,PANTS,cliff,UR,2.4664,NR,3.0000
447,11,207,323.8044,-311.8032,WO,4,4,WHEAT,patio,UR,1.0619,NR,3.0000
448,11,208,335.8731,-323.8719,WO,4,3,OMELET,manufactured_home,UR,1.0612,NR,3.0000
449,11,209,347.9419,-335.9399,WI,2,2,CANDY,laundromat,UR,0.8836,NR,3.0000
450,11,210,360.0117,-348.0109,WI,4,3,TOWEL,natural_history_museum,UR,1.8486,NR,3.0000
451,11,211,372.0802,-360.0782,WO,4,4,OMELET,manufactured_home,UR,0.8851,NR,3.0000
452,11,212,384.1501,-372.1493,WI,4,4,ORANGE,parking_garage,R,0.8948,NR,3.0000
453,11,213,396.2181,-384.2164,WO,2,2,TRIBE,hangar,UR,1.1333,NR,3.0000
454,11,214,408.2877,-396.2858,WI,4,4,PASSPORT,nursery,UR,1.0582,NR,3.0000
455,11,215,420.3577,-408.3560,WI,4,4,HAM,museum,UR,1.1644,NR,3.0000
456,11,216,432.4267,-420.4250,WI,4,4,TOWEL,natural_history_museum,UR,0.8569,NR,3.0000
457,11,217,444.4963,-432.4951,WO,4,4,MITTEN,driving_range,UR,0.8850,NR,3.0000
458,11,218,456.5648,-444.5623,WI,4,4,RAKE,lobby,UR,0.7958,NR,3.0000
459,11,219,468.6348,-456.6335,WO,2,2,TRAY,mosque,UR,0.9554,NR,3.0000
460,11,220,480.7040,-468.7028,WI,4,4,BANANA,bakery,R,1.1619,NR,3.0000
461,11,221,492.7725,-480.7707,WO,2,2,VELVET,mausoleum,UR,1.2950,NR,3.0000
462,11,222,504.8421,-492.8399,WO,4,4,ORCHID,beach,UR,1.0217,NR,3.0000
463,12,199,10.0057,1.9957,WO,2,2,CAMEL,arch,UR,2.3325,NR,3.0000
464,12,200,22.0794,-10.0780,WI,4,3,HOSE,badminton_court,UR,1.4174,NR,3.0000
465,12,201,34.1503,-22.1480,WI,4,3,DIAMOND,bedroom,UR,1.4166,NR,3.0000
466,12,202,46.2223,-34.2215,WO,4,3,STAPLER,carrousel,UR,1.6628,NR,3.0000
467,12,203,58.2925,-46.2903,WI,4,3,OATMEAL,orchestra_pit,UR,1.4008,NR,3.0000
468,12,204,70.3642,-58.3626,WO,4,3,LIME,river,UR,1.3316,NR,3.0000
469,12,205,82.4362,-70.4342,WO,4,3,CROWN,fountain,UR,2.9783,NR,3.0000
470,12,206,94.5079,-82.5068,WO,4,4,STAPLER,carrousel,NR,999.0000,UR,3.1300
471,12,207,106.5786,-94.5765,WI,2,2,TYPEWRITER,stage,UR,2.4717,NR,3.0000
472,12,208,118.6510,-106.6493,WI,2,2,DAISY,game_room,NR,999.0000,UR,3.1847
473,12,209,130.7224,-118.7209,WO,2,2,WAND,campsite,UR,2.2786,NR,3.0000
474,12,210,142.7940,-130.7930,WO,2,2,SWORD,boathouse,UR,1.2912,NR,3.0000
475,12,211,154.8647,-142.8631,WI,4,3,PASTE,movie_theater,UR,1.2792,NR,3.0000
476,12,212,166.9360,-154.9341,WO,4,3,VIOLIN,railroad_track,UR,1.9850,NR,3.0000
477,12,213,179.0079,-167.0052,WO,4,3,TROPHY,ice_shelf,UR,1.6809,NR,3.0000
478,12,214,191.0802,-179.0793,WI,2,2,FLASK,kindergarden_classroom,UR,1.5313,NR,3.0000
479,12,215,203.1514,-191.1500,WO,4,4,LIME,river,UR,1.2138,NR,3.0000
480,12,216,215.2227,-203.2208,WI,2,2,PYTHON,assembly_line,UR,1.5444,NR,3.0000
481,12,217,227.2945,-215.2925,WO,4,4,CROWN,fountain,UR,1.0641,NR,3.0000
482,12,218,239.3668,-227.3659,WO,4,3,BATON,park,UR,2.0846,NR,3.0000
483,12,219,251.4376,-239.4364,WO,2,2,SHELL,basilica,UR,1.4089,NR,3.0000
484,12,220,263.5091,-251.5077,WI,2,2,HAWK,jewelry_shop,UR,1.1979,NR,3.0000
485,12,221,275.5804,-263.5795,WI,4,4,HOSE,badminton_court,UR,1.5787,NR,3.0000
486,12,222,287.6514,-275.6491,WO,4,3,ORNAMENT,pagoda,R,1.1611,NR,3.0000
487,12,223,299.7241,-287.7230,WI,2,2,DRUG,reception,R,2.6055,NR,3.0000
488,12,224,311.7953,-299.7941,WI,4,3,ARMOR,archive,UR,1.3396,NR,3.0000
489,12,225,323.8673,-311.8654,WO,4,4,BATON,park,UR,1.1286,NR,3.0000
490,12,226,335.9392,-323.9368,WI,4,4,ARMOR,archive,UR,1.6587,NR,3.0000
491,12,227,348.0115,-336.0091,WI,4,4,PASTE,movie_theater,UR,1.4792,NR,3.0000
492,12,228,360.0837,-348.0819,WI,2,2,WRENCH,auto_factory,UR,1.3703,NR,3.0000
493,12,229,372.1554,-360.1541,WO,2,2,KNIFE,kasbah,R,1.4511,NR,3.0000
494,12,230,384.2267,-372.2247,WI,4,3,SCISSORS,theater,UR,1.0943,NR,3.0000
495,12,231,396.2984,-384.2956,WO,4,4,VIOLIN,railroad_track,UR,1.0115,NR,3.0000
496,12,232,408.3712,-396.3690,WI,4,3,PEDAL,limousine_interior,UR,1.1922,NR,3.0000
497,12,233,420.4441,-408.4423,WI,4,4,OATMEAL,orchestra_pit,UR,0.8389,NR,3.0000
498,12,234,432.5161,-420.5146,WO,2,2,HELMET,lighthouse,UR,1.1325,NR,3.0000
499,12,235,444.5878,-432.5870,WO,2,2,MUSTARD,ice_floe,UR,1.6056,NR,3.0000
500,12,236,456.6585,-444.6567,WI,4,4,SCISSORS,theater,UR,1.3767,NR,3.0000
501,12,237,468.7301,-456.7287,WO,4,4,TROPHY,ice_shelf,UR,0.9401,NR,3.0000
502,12,238,480.8020,-468.8004,WI,4,4,PEDAL,limousine_interior,UR,1.8009,NR,3.0000
503,12,239,492.8739,-480.8726,WO,4,4,ORNAMENT,pagoda,R,1.4916,NR,3.0000
504,12,240,504.9456,-492.9447,WI,4,4,DIAMOND,bedroom,UR,1.4100,NR,3.0000
