index,run,trial,onset,duration,cond,shockCond,shockTrial,target,associate,resp,acc,accSpec,respRT,ISIresp,ISIacc,ISIaccSpec,ISIrespRT
1,1,1,12.0266,9.2606,TI_4,safe,0,SPATULA,locker_room,TI,H,HI_Lo,1.9323,NR,NR,NR,999.0000
2,1,2,21.3160,11.6183,F,safe,0,CORAL,foil,TO,FA,FAO_Lo,3.8194,NR,NR,NR,999.0000
3,1,3,32.9696,11.3322,TO_4,safe,0,KALE,corn_field,TO,H,HO_Hi,3.9332,NR,NR,NR,999.0000
4,1,4,44.3302,9.1022,TI_2,safe,0,GEESE,closet,TI,H,HI_Hi,3.3693,NR,NR,NR,999.0000
5,1,5,53.4607,9.8071,TO_4,safe,0,MONKEY,pond,TO,H,HO_Hi,2.1732,NR,NR,NR,999.0000
6,1,6,63.2966,10.7117,TO_2,safe,0,BOWL,greenhouse,F,M,MI,1.6132,NR,NR,NR,999.0000
7,1,7,74.0366,10.5704,F,safe,0,SCOOTER,foil,F,CR,CR,2.0963,NR,NR,NR,999.0000
8,1,8,84.6352,9.1488,TO_2,safe,0,BARREL,raceway,TO,H,HO_Lo,2.8897,NR,NR,NR,999.0000
9,1,9,93.8119,9.7544,TO_4,safe,0,HONEY,crosswalk,TI,SM,SMO_Lo,2.8472,NR,NR,NR,999.0000
10,1,10,103.5941,11.6845,TO_2,safe,0,PLUG,basketball_court,TI,SM,SMO_Hi,3.5268,NR,NR,NR,999.0000
11,1,11,115.3071,9.6866,TI_2,safe,0,LANTERN,baggage_claim,F,M,MI,3.0883,NR,NR,NR,999.0000
12,1,12,125.0225,11.9425,F,safe,0,POTATO,foil,F,CR,CR,3.0970,NR,NR,NR,999.0000
13,1,13,136.9933,9.9337,TO_2,safe,0,ROCK,corral,TO,H,HO_Lo,2.4798,TI,SM,SMO_Lo,0.0674
14,1,14,146.9549,9.5374,TI_4,safe,0,BUCKET,elevator,TI,H,HI_Lo,2.8475,NR,NR,NR,999.0000
15,1,15,156.5212,9.6904,TO_2,safe,0,STOOL,moat,TO,H,HO_Lo,2.6575,NR,NR,NR,999.0000
16,1,16,166.2400,12.3311,F,safe,0,QUAIL,foil,F,CR,CR,1.8364,NR,NR,NR,999.0000
17,1,17,178.5991,10.1075,TI_4,safe,0,MILK,dining_room,TO,SM,SMI_Lo,2.2919,NR,NR,NR,999.0000
18,1,18,188.7358,9.0588,F,safe,0,LAMB,foil,F,CR,CR,1.6399,NR,NR,NR,999.0000
19,1,19,197.8229,9.9136,F,safe,0,QUILL,foil,F,CR,CR,1.9420,NR,NR,NR,999.0000
20,1,20,207.7649,12.3270,F,safe,0,GLOVE,foil,TO,FA,FAO_Lo,2.5033,NR,NR,NR,999.0000
21,1,21,220.1210,10.3716,TI_4,safe,0,FROG,dentists_office,F,M,MI,1.9581,NR,NR,NR,999.0000
22,1,22,230.5211,10.0961,TI_4,safe,0,BEAVER,hospital_room,TO,SM,SMI_Hi,2.8039,NR,NR,NR,999.0000
23,1,23,240.6457,9.7641,TO_2,safe,0,SHRIMP,orchard,F,M,MI,1.2205,NR,NR,NR,999.0000
24,1,24,250.4388,10.5544,F,safe,0,SHARK,foil,F,CR,CR,1.0981,NR,NR,NR,999.0000
25,1,25,261.0211,9.9900,TO_4,safe,0,VINE,mountain,TI,SM,SMO_Hi,2.5292,NR,NR,NR,999.0000
26,1,26,271.0397,9.1268,TI_2,safe,0,RASH,burial_chamber,TO,SM,SMI_Hi,2.6482,NR,NR,NR,999.0000
27,1,27,280.1956,9.2748,TI_2,safe,0,BUTTER,kennel,F,M,MI,1.6761,NR,NR,NR,999.0000
28,1,28,289.4988,9.3932,TO_2,safe,0,SHOWER,garbage_dump,TI,SM,SMO_Hi,2.5962,NR,NR,NR,999.0000
29,1,29,298.9207,9.4175,TI_2,safe,0,NEEDLE,courtroom,TI,H,HI_Hi,3.6715,NR,NR,NR,999.0000
30,1,30,308.3672,11.1884,TO_4,safe,0,SCORPION,balcony,F,M,MI,1.8468,NR,NR,NR,999.0000
31,1,31,319.5837,10.1983,TI_4,safe,0,KEG,gymnasium,NR,NR,NR,999.0000,TI,H,HI_Lo,0.1229
32,1,32,329.8104,9.3761,TI_2,safe,0,SARDINE,riding_arena,F,M,MI,2.1386,NR,NR,NR,999.0000
33,1,33,339.2160,9.8971,F,safe,0,SCREWDRIVER,foil,F,CR,CR,2.6984,NR,NR,NR,999.0000
34,1,34,349.1415,9.9219,F,safe,0,MOTH,foil,F,CR,CR,1.2333,NR,NR,NR,999.0000
35,1,35,359.0921,9.7567,TO_4,safe,0,WORM,fishpond,TO,H,HO_Hi,3.5507,NR,NR,NR,999.0000
36,1,36,368.8780,9.1788,F,safe,0,BASKET,foil,TI,FA,FAI_Hi,2.9036,NR,NR,NR,999.0000
37,1,37,378.0855,10.4705,TI_4,safe,0,CANDLE,cathedral,F,M,MI,3.0214,NR,NR,NR,999.0000
38,1,38,388.5856,9.6330,TI_2,safe,0,TELEGRAPH,computer_room,F,M,MI,1.1910,NR,NR,NR,999.0000
39,1,39,398.2476,11.2678,TO_4,safe,0,BALLOON,islet,TI,SM,SMO_Lo,2.3223,NR,NR,NR,999.0000
40,1,40,409.5438,10.9970,F,safe,0,DOLL,foil,TI,FA,FAI_Lo,1.8295,NR,NR,NR,999.0000
41,1,41,420.5696,10.6524,F,safe,0,PENNY,foil,F,CR,CR,2.9465,NR,NR,NR,999.0000
42,1,42,431.2513,9.1163,F,safe,0,BAYONET,foil,F,CR,CR,1.8335,NR,NR,NR,999.0000
43,2,1,12.0060,11.9675,TI_2,threat,0,BOAT,chicken_coop,F,M,MI,1.5111,NR,NR,NR,999.0000
44,2,2,24.0047,10.4693,TO_4,threat,0,HATCHET,ocean,TI,SM,SMO_Hi,3.3276,NR,NR,NR,999.0000
45,2,3,34.5051,9.0982,F,threat,0,TOBACCO,foil,F,CR,CR,1.3588,NR,NR,NR,999.0000
46,2,4,43.6352,9.1461,TO_4,threat,0,ACCORDIAN,lock_chamber,TI,SM,SMO_Lo,1.7473,NR,NR,NR,999.0000
47,2,5,52.8116,9.7603,TI_4,threat,0,TROLLEY,television_studio,TO,SM,SMI_Lo,1.9097,NR,NR,NR,999.0000
48,2,6,62.6025,9.9223,TO_4,threat,0,TORNADO,landing_deck,TO,H,HO_Hi,1.7967,NR,NR,NR,999.0000
49,2,7,72.5558,9.9097,TO_2,threat,0,FENCE,iceberg,F,M,MI,1.2530,NR,NR,NR,999.0000
50,2,8,82.4956,11.2672,F,threat,0,SEAL,foil,F,CR,CR,2.2301,NR,NR,NR,999.0000
51,2,9,93.7938,9.7523,TI_4,threat,0,COFFEE,clothing_store,F,M,MI,3.7524,NR,NR,NR,999.0000
52,2,10,103.5772,9.3729,TI_2,threat,0,HIGHWAY,attic,F,M,MI,3.0132,NR,NR,NR,999.0000
53,2,11,112.9807,9.4188,F,threat,0,SPONGE,foil,F,CR,CR,3.0186,NR,NR,NR,999.0000
54,2,12,122.4300,11.6793,F,threat,0,QUARTER,foil,F,CR,CR,3.1044,NR,NR,NR,999.0000
55,2,13,134.1406,10.5511,TO_2,threat,0,BRAIN,butte,F,M,MI,2.0842,NR,NR,NR,999.0000
56,2,14,144.7223,9.6332,TI_4,threat,0,PEARL,bus_interior,TO,SM,SMI_Lo,2.7521,NR,NR,NR,999.0000
57,2,15,154.3858,9.2523,TI_4,threat,0,OWL,supermarket,F,M,MI,3.6213,NR,NR,NR,999.0000
58,2,16,163.6714,11.8030,TI_2,threat,1,UMBRELLA,art_studio,TI,H,HI_Lo,0.0960,NR,NR,NR,999.0000
59,2,17,175.5047,10.6519,F,threat,0,STOMACH,foil,F,CR,CR,1.6203,NR,NR,NR,999.0000
60,2,18,186.1875,9.9312,TI_2,threat,0,DESK,beauty_salon,TI,H,HI_Lo,3.1038,NR,NR,NR,999.0000
61,2,19,196.1493,11.3360,F,threat,0,TIGER,foil,F,CR,CR,1.2899,NR,NR,NR,999.0000
62,2,20,207.5160,12.3272,F,threat,0,MOUSE,foil,TO,FA,FAO_Lo,1.8527,NR,NR,NR,999.0000
63,2,21,219.8746,9.6849,TI_4,threat,0,TWEEZERS,fastfood_restaurant,F,M,MI,1.9372,NR,NR,NR,999.0000
64,2,22,229.5899,10.0946,TO_2,threat,0,WHIP,construction_site,TO,H,HO_Lo,2.4840,NR,NR,NR,999.0000
65,2,23,239.7157,9.1144,TI_2,threat,0,RUDDER,kitchenette,TO,SM,SMI_Lo,2.5798,NR,NR,NR,999.0000
66,2,24,248.8614,10.7062,TO_4,threat,0,SOAP,putting_green,F,M,MI,1.7913,NR,NR,NR,999.0000
67,2,25,259.5982,9.8962,F,threat,0,GARBAGE,foil,TI,FA,FAI_Lo,1.5688,NR,NR,NR,999.0000
68,2,26,269.5248,10.1063,F,threat,0,ROSARY,foil,F,CR,CR,2.3376,NR,NR,NR,999.0000
69,2,27,279.6625,9.0567,TO_4,threat,0,LETTUCE,phone_booth,TO,H,HO_Lo,3.6962,NR,NR,NR,999.0000
70,2,28,288.7502,11.6185,TI_2,threat,0,TOAST,butchers_shop,TI,H,HI_Lo,1.7924,NR,NR,NR,999.0000
71,2,29,300.4000,10.3719,TO_2,threat,0,OYSTER,hayfield,F,M,MI,3.5026,NR,NR,NR,999.0000
72,2,30,310.8024,10.9938,F,threat,0,PIGEON,foil,F,CR,CR,1.3527,NR,NR,NR,999.0000
73,2,31,321.8269,9.6885,TO_2,threat,0,CANARY,gas_station,TO,H,HO_Lo,2.5936,NR,NR,NR,999.0000
74,2,32,331.5461,9.5363,F,threat,0,SYRUP,foil,F,CR,CR,2.0573,NR,NR,NR,999.0000
75,2,33,341.1143,9.1211,TI_2,threat,0,ALLIGATOR,escalator,F,M,MI,2.1065,NR,NR,NR,999.0000
76,2,34,350.2658,9.2758,F,threat,0,BELL,foil,F,CR,CR,3.0061,NR,NR,NR,999.0000
77,2,35,359.5725,12.3228,TI_4,threat,0,GOAT,candy_store,TI,H,HI_Lo,1.7208,NR,NR,NR,999.0000
78,2,36,371.9270,10.1965,TI_4,threat,0,SCOTCH,bazaar,TI,H,HI_Lo,3.9040,NR,NR,NR,999.0000
79,2,37,382.1543,9.7535,F,threat,0,LION,foil,F,CR,CR,1.3622,NR,NR,NR,999.0000
80,2,38,391.9389,9.3892,TO_4,threat,0,SOUP,palace,F,M,MI,3.0094,NR,NR,NR,999.0000
81,2,39,401.3594,10.5668,F,threat,0,MAP,foil,F,CR,CR,2.3013,NR,NR,NR,999.0000
82,2,40,411.9576,11.1858,TO_4,threat,0,WITCH,crevasse,NR,NR,NR,999.0000,F,M,MI,0.2386
83,2,41,423.1745,9.9859,TO_2,threat,0,BENCH,pasture,F,M,MI,1.9205,TO,H,HO_Hi,3.6510
84,2,42,433.1920,9.1761,TO_2,threat,0,TEETH,rope_bridge,F,M,MI,1.6990,NR,NR,NR,999.0000
85,3,1,12.0052,11.7074,F,safe,0,MUSSEL,foil,F,CR,CR,2.4376,NR,NR,NR,999.0000
86,3,2,23.7453,9.9848,TO_2,safe,0,CAMERA,hot_tub,F,M,MI,1.8838,NR,NR,NR,999.0000
87,3,3,33.7621,9.7602,TO_2,safe,0,SANDAL,oilrig,TI,SM,SMO_Hi,2.5441,NR,NR,NR,999.0000
88,3,4,43.5544,11.2631,TI_4,safe,0,CHEESE,aquarium,F,M,MI,2.3561,NR,NR,NR,999.0000
89,3,5,54.8492,9.2519,TO_4,safe,0,ANT,cabin,TO,H,HO_Hi,1.9726,NR,NR,NR,999.0000
90,3,6,64.1333,9.2730,F,safe,0,BIBLE,foil,F,CR,CR,1.7673,NR,NR,NR,999.0000
91,3,7,73.4380,11.1847,TO_4,safe,0,PIE,heliport,TI,SM,SMO_Lo,3.5324,NR,NR,NR,999.0000
92,3,8,84.6550,9.4156,TI_2,safe,0,NAPKIN,music_studio,F,M,MI,1.3854,NR,NR,NR,999.0000
93,3,9,94.1032,10.7059,TO_4,safe,0,OPIUM,watering_hole,TO,H,HO_Hi,3.8980,NR,NR,NR,999.0000
94,3,10,104.8412,9.0572,TI_4,safe,0,SOOT,volleyball_court,TO,SM,SMI_Lo,2.3212,NR,NR,NR,999.0000
95,3,11,113.9304,9.1139,TO_2,safe,0,CLAM,bridge,F,M,MI,1.5101,NR,NR,NR,999.0000
96,3,12,123.0770,9.3874,TO_2,safe,0,TABLE,plaza,NR,NR,NR,999.0000,NR,NR,NR,999.0000
97,3,13,132.4966,9.1763,F,safe,0,CEREAL,foil,TI,FA,FAI_Lo,1.4059,NR,NR,NR,999.0000
98,3,14,141.7047,10.3682,TI_4,safe,0,APPLE,bookstore,TI,H,HI_Lo,2.5050,NR,NR,NR,999.0000
99,3,15,152.1056,11.3333,F,safe,0,CLARINET,foil,NR,NR,NR,999.0000,NR,NR,NR,999.0000
100,3,16,163.4711,9.1004,F,safe,0,NECKLACE,foil,TI,FA,FAI_Lo,2.8429,NR,NR,NR,999.0000
101,3,17,172.6035,11.6179,F,safe,0,TURTLE,foil,NR,NR,NR,999.0000,NR,NR,NR,999.0000
102,3,18,184.2546,12.3210,TI_2,safe,0,DETECTIVE,jacuzzi,TO,SM,SMI_Lo,2.7645,NR,NR,NR,999.0000
103,3,19,196.6074,10.6500,F,safe,0,GORILLA,foil,F,CR,CR,1.4185,NR,NR,NR,999.0000
104,3,20,207.2896,10.4670,F,safe,0,JACKET,foil,NR,NR,NR,999.0000,F,CR,CR,0.3811
105,3,21,217.7884,9.7521,TI_2,safe,0,POWDER,florist_shop,F,M,MI,1.1228,NR,NR,NR,999.0000
106,3,22,227.5728,12.3268,F,safe,0,PENCIL,foil,NR,NR,NR,999.0000,NR,NR,NR,999.0000
107,3,23,239.9324,9.1219,TI_4,safe,0,OTTER,garage,F,M,MI,1.1070,NR,NR,NR,999.0000
108,3,24,249.0864,10.1049,TI_2,safe,0,BOOT,ballroom,NR,NR,NR,999.0000,NR,NR,NR,999.0000
109,3,25,259.2228,9.8042,F,safe,0,DUST,foil,F,CR,CR,1.0132,NR,NR,NR,999.0000
110,3,26,269.0600,9.9281,TO_2,safe,0,OLIVE,motel,F,M,MI,1.3386,NR,NR,NR,999.0000
111,3,27,279.0206,9.6841,TI_2,safe,0,SADDLE,brewery,F,M,MI,1.4540,NR,NR,NR,999.0000
112,3,28,288.7369,9.5327,TI_2,safe,0,RACQUET,optician,NR,NR,NR,999.0000,NR,NR,NR,999.0000
113,3,29,298.3025,9.1445,TI_2,safe,0,STORK,throne_room,TO,SM,SMI_Lo,2.0589,NR,NR,NR,999.0000
114,3,30,307.4791,9.8934,TO_2,safe,0,SHOVEL,hill,TO,H,HO_Lo,2.5928,NR,NR,NR,999.0000
115,3,31,317.4049,9.7512,TI_4,safe,0,CLOAK,ice_cream_parlor,NR,NR,NR,999.0000,NR,NR,NR,999.0000
116,3,32,327.1880,9.6870,TO_2,safe,0,BABY,canyon,TO,H,HO_Lo,1.1464,NR,NR,NR,999.0000
117,3,33,336.9077,9.9202,TI_4,safe,0,DRUM,apse,TO,SM,SMI_Lo,2.0690,NR,NR,NR,999.0000
118,3,34,346.8603,10.9930,TO_4,safe,0,WALLET,ruin,NR,NR,NR,999.0000,NR,NR,NR,999.0000
119,3,35,357.8868,10.0907,TI_4,safe,0,SAXOPHONE,biology_laboratory,NR,NR,NR,999.0000,NR,NR,NR,999.0000
120,3,36,368.0101,9.9092,F,safe,0,SQUIRREL,foil,TO,FA,FAO_Lo,1.8153,NR,NR,NR,999.0000
121,3,37,377.9517,9.6304,F,safe,0,DAMSEL,foil,TO,FA,FAO_Lo,3.8368,NR,NR,NR,999.0000
122,3,38,387.6155,11.9389,TO_4,safe,0,ASPARAGUS,rice_paddy,NR,NR,NR,999.0000,TO,H,HO_Lo,0.1486
123,3,39,399.5870,10.1948,F,safe,0,NOODLE,foil,F,CR,CR,2.1475,NR,NR,NR,999.0000
124,3,40,409.8144,10.5501,TO_4,safe,0,EASEL,forest_needleleaf,NR,NR,NR,999.0000,TO,H,HO_Lo,0.1726
125,3,41,420.3974,10.5658,TO_4,safe,0,PUDDLE,forest_path,NR,NR,NR,999.0000,NR,NR,NR,999.0000
126,3,42,430.9958,9.3718,F,safe,0,PIANO,foil,NR,NR,NR,999.0000,TO,FA,FAO_Lo,0.2133
127,4,1,12.0057,10.3975,F,threat,0,CANE,foil,TI,FA,FAI_Hi,3.4790,NR,NR,NR,999.0000
128,4,2,22.4376,9.7575,TI_4,threat,0,CARROT,athletic_field,TI,H,HI_Lo,3.3372,NR,NR,NR,999.0000
129,4,3,32.2282,9.9855,TO_2,threat,0,HOOK,cottage_garden,F,M,MI,1.3366,NR,NR,NR,999.0000
130,4,4,42.2468,9.9186,TI_4,threat,0,GLOBE,shopping_mall,TI,H,HI_Lo,2.7280,NR,NR,NR,999.0000
131,4,5,52.1988,10.5639,TI_2,threat,0,CRAB,tennis_court,F,M,MI,1.5774,NR,NR,NR,999.0000
132,4,6,62.7961,11.6184,TI_4,threat,0,MAGICIAN,bowling_alley,TO,SM,SMI_Hi,3.2681,NR,NR,NR,999.0000
133,4,7,74.4482,9.2709,F,threat,0,MANURE,foil,F,CR,CR,2.9110,NR,NR,NR,999.0000
134,4,8,83.7524,9.3866,TO_4,threat,0,TULIP,amusement_park,TI,SM,SMO_Hi,2.7503,NR,NR,NR,999.0000
135,4,9,93.1723,10.1945,TO_4,threat,0,THONG,outhouse,NR,NR,NR,999.0000,TI,SM,SMO_Lo,0.0418
136,4,10,103.6759,12.2727,TO_2,threat,1,WALNUT,labyrinth,F,M,MI,0.0595,NR,NR,NR,999.0000
137,4,11,115.9812,9.4173,F,threat,0,DOVE,foil,TO,FA,FAO_Lo,1.6019,NR,NR,NR,999.0000
138,4,12,125.4311,11.3333,TO_2,threat,0,BANDAGE,canal,TI,SM,SMO_Lo,1.1896,NR,NR,NR,999.0000
139,4,13,136.7973,9.8920,F,threat,0,PAN,foil,F,CR,CR,1.8777,NR,NR,NR,999.0000
140,4,14,146.7225,9.9284,F,threat,0,SNOW,foil,TI,FA,FAI_Lo,3.1133,NR,NR,NR,999.0000
141,4,15,156.6836,9.3720,F,threat,0,WINE,foil,F,CR,CR,2.0724,NR,NR,NR,999.0000
142,4,16,166.0895,12.3241,TI_2,threat,0,CANNON,toyshop,TO,SM,SMI_Lo,3.1272,NR,NR,NR,999.0000
143,4,17,178.4476,9.1206,TI_4,threat,0,DOUGHNUT,catacomb,TO,SM,SMI_Lo,3.0612,NR,NR,NR,999.0000
144,4,18,187.6012,9.5335,TI_4,threat,0,MUFFIN,jail_cell,F,M,MI,1.7350,NR,NR,NR,999.0000
145,4,19,197.1682,11.2615,TI_2,threat,0,RICE,bar,TI,H,HI_Lo,0.8953,NR,NR,NR,999.0000
146,4,20,208.4634,10.9918,F,threat,0,MEDICINE,foil,TO,FA,FAO_Lo,0.8858,NR,NR,NR,999.0000
147,4,21,219.4884,9.0986,TI_2,threat,0,CRADLE,dorm_room,TI,H,HI_Lo,1.3545,NR,NR,NR,999.0000
148,4,22,228.6206,9.6851,TO_2,threat,0,RING,bayou,TO,H,HO_Lo,0.8776,NR,NR,NR,999.0000
149,4,23,238.3388,9.7503,TO_2,threat,0,FOX,creek,TO,H,HO_Lo,2.4164,NR,NR,NR,999.0000
150,4,24,248.1227,9.8034,F,threat,0,SCROLL,foil,F,CR,CR,0.8581,NR,NR,NR,999.0000
151,4,25,257.9602,9.9076,TO_2,threat,0,SOCK,dam,F,M,MI,0.9336,NR,NR,NR,999.0000
152,4,26,267.9018,11.9390,TO_4,threat,0,CUCUMBER,lido_deck,F,M,MI,0.7929,NR,NR,NR,999.0000
153,4,27,279.8741,9.0542,F,threat,0,ENVELOPE,foil,TI,FA,FAI_Lo,1.2337,NR,NR,NR,999.0000
154,4,28,288.9623,11.6769,TI_2,threat,0,SNAIL,shoe_shop,TO,SM,SMI_Lo,2.9166,NR,NR,NR,999.0000
155,4,29,300.6728,10.7055,TO_4,threat,0,HAMMER,fire_station,F,M,MI,0.9159,NR,NR,NR,999.0000
156,4,30,311.4117,9.1748,TO_4,threat,0,WALRUS,aqueduct,F,M,MI,0.9669,NR,NR,NR,999.0000
157,4,31,320.6198,10.0916,F,threat,0,LAMP,foil,F,CR,CR,0.6750,NR,NR,NR,999.0000
158,4,32,330.7452,9.1439,TI_2,threat,0,BLANKET,restaurant,F,M,MI,0.8979,NR,NR,NR,999.0000
159,4,33,339.9225,9.6297,F,threat,0,ICICLE,foil,F,CR,CR,1.0208,NR,NR,NR,999.0000
160,4,34,349.5856,10.6481,F,threat,0,ZIPPER,foil,F,CR,CR,0.7677,NR,NR,NR,999.0000
161,4,35,360.2666,10.1026,TO_4,threat,0,NET,boardwalk,F,M,MI,0.9545,NR,NR,NR,999.0000
162,4,36,370.4026,9.1127,TI_4,threat,0,ACROBAT,art_gallery,F,M,MI,0.9845,TI,H,HI_Hi,0.7459
163,4,37,379.5485,9.6824,TI_4,threat,0,BRACELET,ball_pit,F,M,MI,0.8049,NR,NR,NR,999.0000
164,4,38,389.2641,11.1831,TO_4,threat,0,CHERRY,igloo,F,M,MI,0.8727,NR,NR,NR,999.0000
165,4,39,400.4802,9.7515,TI_2,threat,0,HARPOON,library,TO,SM,SMI_Lo,1.9681,NR,NR,NR,999.0000
166,4,40,410.2656,10.4648,F,threat,0,CHICKEN,foil,TI,FA,FAI_Lo,0.9996,NR,NR,NR,999.0000
167,4,41,420.7639,9.2497,F,threat,0,PUMPKIN,foil,F,CR,CR,0.8846,NR,NR,NR,999.0000
168,4,42,430.0474,12.3209,TO_2,threat,0,SUBMARINE,mountain_snowy,F,M,MI,0.9252,NR,NR,NR,999.0000
169,5,1,12.0080,9.1395,TO_4,safe,0,MITTEN,driving_range,F,M,MI,1.3427,NR,NR,NR,999.0000
170,5,2,21.1835,9.1405,TI_4,safe,0,TOWEL,natural_history_museum,F,M,MI,1.3525,NR,NR,NR,999.0000
171,5,3,30.3581,9.7490,TI_4,safe,0,HAM,museum,F,M,MI,1.0207,NR,NR,NR,999.0000
172,5,4,40.1420,9.2697,TO_4,safe,0,WHEAT,patio,F,M,MI,0.8582,NR,NR,NR,999.0000
173,5,5,49.4469,9.7503,TI_4,safe,0,PASSPORT,nursery,F,M,MI,3.3032,NR,NR,NR,999.0000
174,5,6,59.2318,9.3844,TI_2,safe,0,ELEPHANT,boxing_ring,F,M,MI,1.5952,NR,NR,NR,999.0000
175,5,7,68.6506,11.2617,TO_4,safe,0,EAGLE,inn,F,M,MI,2.2326,NR,NR,NR,999.0000
176,5,8,79.9476,9.6814,TI_2,safe,0,MEDAL,restaurant_kitchen,F,M,MI,3.6361,NR,NR,NR,999.0000
177,5,9,89.6635,11.6157,F,safe,0,ASPIRIN,foil,F,CR,CR,1.1823,NR,NR,NR,999.0000
178,5,10,101.3137,9.1198,TO_2,safe,0,TRIBE,hangar,F,M,MI,1.2906,NR,NR,NR,999.0000
179,5,11,110.4680,11.3326,TO_2,safe,0,FORK,playground,TO,H,HO_Lo,1.9862,NR,NR,NR,999.0000
180,5,12,121.8353,9.3701,F,safe,0,LIGHTNING,foil,F,CR,CR,1.2016,NR,NR,NR,999.0000
181,5,13,131.2401,9.6271,TO_4,safe,0,PANTS,cliff,TI,SM,SMO_Lo,1.7817,NR,NR,NR,999.0000
182,5,14,140.9016,10.9926,TO_2,safe,0,VELVET,mausoleum,TI,SM,SMO_Lo,2.8627,NR,NR,NR,999.0000
183,5,15,151.9283,9.0531,TI_4,safe,0,RAKE,lobby,TO,SM,SMI_Lo,3.9265,NR,NR,NR,999.0000
184,5,16,161.0167,9.9082,TI_2,safe,0,NIGHTGOWN,engine_room,TI,H,HI_Lo,3.7978,F,M,MI,0.0979
185,5,17,170.9591,10.1917,F,safe,0,SEAWEED,foil,NR,NR,NR,999.0000,TI,FA,FAI_Lo,0.3010
186,5,18,181.1854,10.5646,TI_2,safe,0,MOON,banquet_hall,F,M,MI,1.0061,NR,NR,NR,999.0000
187,5,19,191.7845,10.5481,TI_2,safe,0,CANDY,laundromat,TI,H,HI_Lo,2.1099,NR,NR,NR,999.0000
188,5,20,202.3678,9.9834,TO_4,safe,0,OMELET,manufactured_home,TI,SM,SMO_Lo,0.8144,NR,NR,NR,999.0000
189,5,21,212.3859,12.3240,TI_4,safe,0,BANANA,bakery,TO,SM,SMI_Lo,1.8578,NR,NR,NR,999.0000
190,5,22,224.7451,9.9153,F,safe,0,ROSE,foil,TO,FA,FAO_Lo,3.1974,NR,NR,NR,999.0000
191,5,23,234.6952,9.2490,TI_4,safe,0,ORANGE,parking_garage,NR,NR,NR,999.0000,NR,NR,NR,999.0000
192,5,24,243.9791,9.7572,F,safe,0,BANDIT,foil,F,CR,CR,1.2043,NR,NR,NR,999.0000
193,5,25,253.7712,9.9263,TI_4,safe,0,KILT,car_interior,NR,NR,NR,999.0000,NR,NR,NR,999.0000
194,5,26,263.7323,11.6763,TO_4,safe,0,ORCHID,beach,NR,NR,NR,999.0000,NR,NR,NR,999.0000
195,5,27,275.4437,10.3658,F,safe,0,ANCHOR,foil,TO,FA,FAO_Lo,1.5505,NR,NR,NR,999.0000
196,5,28,285.8442,10.1018,TO_2,safe,0,YACHT,desert,F,M,MI,3.1940,NR,NR,NR,999.0000
197,5,29,295.9810,9.0956,F,safe,0,POSTER,foil,NR,NR,NR,999.0000,NR,NR,NR,999.0000
198,5,30,305.1111,9.4141,F,safe,0,EYE,foil,F,CR,CR,0.9184,NR,NR,NR,999.0000
199,5,31,314.5605,10.6459,TO_2,safe,0,ARROW,power_plant,NR,NR,NR,999.0000,NR,NR,NR,999.0000
200,5,32,325.2411,10.4654,F,safe,0,CAGE,foil,TO,FA,FAO_Lo,1.6705,NR,NR,NR,999.0000
201,5,33,335.7415,9.8910,F,safe,0,QUILT,foil,TO,FA,FAO_Lo,0.9259,NR,NR,NR,999.0000
202,5,34,345.6680,10.7023,TI_2,safe,0,FIDDLE,airplane_cabin,TO,SM,SMI_Lo,3.8517,NR,NR,NR,999.0000
203,5,35,356.4053,9.1740,TO_4,safe,0,SUNBURN,marsh,TI,SM,SMO_Lo,3.8548,NR,NR,NR,999.0000
204,5,36,365.6143,11.1808,F,safe,0,SHEEP,foil,F,CR,CR,1.6111,TO,FA,FAO_Lo,6.9165
205,5,37,376.8300,11.9383,F,safe,0,RIFLE,foil,F,CR,CR,2.0393,NR,NR,NR,999.0000
206,5,38,388.8031,9.6823,TO_2,safe,0,NEST,bamboo_forest,NR,NR,NR,999.0000,NR,NR,NR,999.0000
207,5,39,398.5208,9.8018,F,safe,0,SALAD,foil,TO,FA,FAO_Lo,2.7310,NR,NR,NR,999.0000
208,5,40,408.3577,12.3193,TI_2,safe,0,SLIPPER,synagogue,NR,NR,NR,999.0000,NR,NR,NR,999.0000
209,5,41,420.7118,9.5312,F,safe,0,WOLF,foil,TO,FA,FAO_Lo,3.8507,NR,NR,NR,999.0000
210,5,42,430.2777,10.0908,TO_2,safe,0,TRAY,mosque,F,M,MI,2.9825,NR,NR,NR,999.0000
211,6,1,12.0073,9.7121,TO_2,threat,0,KNIFE,kasbah,F,M,MI,2.8293,NR,NR,NR,999.0000
212,6,2,21.7563,9.9246,F,threat,0,FIRE,foil,F,CR,CR,0.6342,NR,NR,NR,999.0000
213,6,3,31.7168,12.3189,TO_2,threat,0,WAND,campsite,F,M,MI,0.9608,NR,NR,NR,999.0000
214,6,4,44.0708,10.5472,F,threat,0,ROPE,foil,F,CR,CR,0.5868,NR,NR,NR,999.0000
215,6,5,54.6534,11.6739,TO_2,threat,0,CAMEL,arch,F,M,MI,0.5263,NR,NR,NR,999.0000
216,6,6,66.3630,9.6274,TO_2,threat,0,SHELL,basilica,F,M,MI,0.5653,NR,NR,NR,999.0000
217,6,7,76.0259,9.8912,TO_2,threat,0,SWORD,boathouse,F,M,MI,0.5287,NR,NR,NR,999.0000
218,6,8,85.9534,9.2691,TO_4,threat,0,BATON,park,TI,SM,SMO_Lo,1.2665,NR,NR,NR,999.0000
219,6,9,95.2582,11.2593,TO_4,threat,0,STAPLER,carrousel,F,M,MI,3.7096,NR,NR,NR,999.0000
220,6,10,106.5533,9.3854,TI_4,threat,0,OATMEAL,orchestra_pit,F,M,MI,0.5525,NR,NR,NR,999.0000
221,6,11,115.9748,9.3671,TI_4,threat,0,PASTE,movie_theater,F,M,MI,0.4746,NR,NR,NR,999.0000
222,6,12,125.3775,9.6811,F,threat,0,RABBIT,foil,F,CR,CR,0.5614,NR,NR,NR,999.0000
223,6,13,135.0942,9.0534,TI_4,threat,0,PEDAL,limousine_interior,F,M,MI,1.0840,NR,NR,NR,999.0000
224,6,14,144.1837,10.0882,TO_2,threat,0,HELMET,lighthouse,F,M,MI,0.6275,NR,NR,NR,999.0000
225,6,15,154.3079,10.9889,TO_4,threat,0,TROPHY,ice_shelf,F,M,MI,0.5042,NR,NR,NR,999.0000
226,6,16,165.3325,9.9063,TI_4,threat,0,DIAMOND,bedroom,F,M,MI,0.5937,NR,NR,NR,999.0000
227,6,17,175.2752,9.0942,F,threat,0,VODKA,foil,F,CR,CR,0.6975,NR,NR,NR,999.0000
228,6,18,184.4057,9.1411,TO_4,threat,0,ORNAMENT,pagoda,F,M,MI,3.2977,NR,NR,NR,999.0000
229,6,19,193.5821,9.8024,TI_4,threat,0,SCISSORS,theater,F,M,MI,0.8381,NR,NR,NR,999.0000
230,6,20,203.4204,9.1185,TI_4,threat,0,ARMOR,archive,TO,SM,SMI_Lo,1.4223,NR,NR,NR,999.0000
231,6,21,212.5743,10.3657,TI_2,threat,0,WRENCH,auto_factory,F,M,MI,0.6256,NR,NR,NR,999.0000
232,6,22,222.9755,9.4130,TI_2,threat,0,FLASK,kindergarden_classroom,TO,SM,SMI_Lo,1.0765,NR,NR,NR,999.0000
233,6,23,232.4244,10.5629,F,threat,0,JUGGLER,foil,F,CR,CR,0.7207,NR,NR,NR,999.0000
234,6,24,243.0234,12.1000,F,threat,1,CHOCOLATE,foil,F,CR,CR,2.2311,NR,NR,NR,999.0000
235,6,25,255.1586,10.6464,TO_2,threat,0,MUSTARD,ice_floe,F,M,MI,0.5755,NR,NR,NR,999.0000
236,6,26,265.8409,9.9157,F,threat,0,FAN,foil,F,CR,CR,0.5150,NR,NR,NR,999.0000
237,6,27,275.7925,11.9357,F,threat,0,ROCKER,foil,F,CR,CR,0.3261,NR,NR,NR,999.0000
238,6,28,287.7640,11.1810,TI_2,threat,0,HAWK,jewelry_shop,F,M,MI,0.3215,NR,NR,NR,999.0000
239,6,29,298.9813,9.7474,TI_2,threat,0,DRUG,reception,F,M,MI,0.4166,NR,NR,NR,999.0000
240,6,30,308.7641,9.7558,F,threat,0,BROOM,foil,F,CR,CR,1.1299,NR,NR,NR,999.0000
241,6,31,318.5562,12.3236,F,threat,0,BROWNIE,foil,F,CR,CR,0.7581,NR,NR,NR,999.0000
242,6,32,330.9153,9.5307,TI_2,threat,0,DAISY,game_room,F,M,MI,1.6958,NR,NR,NR,999.0000
243,6,33,340.4816,9.1089,TI_2,threat,0,PYTHON,assembly_line,F,M,MI,1.4606,NR,NR,NR,999.0000
244,6,34,349.6264,11.3314,F,threat,0,SAIL,foil,F,CR,CR,0.8166,NR,NR,NR,999.0000
245,6,35,360.9938,10.4637,TO_4,threat,0,VIOLIN,railroad_track,F,M,MI,1.9804,NR,NR,NR,999.0000
246,6,36,371.4942,10.1894,F,threat,0,EMPEROR,foil,F,CR,CR,0.7716,NR,NR,NR,999.0000
247,6,37,381.7203,10.7023,TO_4,threat,0,CROWN,fountain,F,M,MI,0.9323,NR,NR,NR,999.0000
248,6,38,392.4586,9.2488,TO_4,threat,0,LIME,river,F,M,MI,0.8371,NR,NR,NR,999.0000
249,6,39,401.7446,11.9819,TI_2,threat,1,TYPEWRITER,stage,NR,NR,NR,999.0000,NR,NR,NR,999.0000
250,6,40,413.7626,9.7478,F,threat,0,BONE,foil,F,CR,CR,0.6016,NR,NR,NR,999.0000
251,6,41,423.5459,9.1716,F,threat,0,SCAB,foil,F,CR,CR,0.8587,NR,NR,NR,999.0000
252,6,42,432.7534,11.6153,TI_4,threat,0,HOSE,badminton_court,F,M,MI,0.5440,NR,NR,NR,999.0000
