index,run,trial,onset,duration,cond,repType,repCount,word,pic,resp,respRT,ISIresp,ISIrespRT
1,1,1,10.0049,1.9976,WO,4,1,SNAIL,gazebo,UR,2.0832,NR,3.0000
2,1,2,22.0657,-10.0626,WI,4,1,SYRUP,kennel,R,2.1084,NR,3.0000
3,1,3,34.1229,-22.1218,WI,2,1,MAGICIAN,baggage_claim,R,2.0516,NR,3.0000
4,1,4,46.1794,-34.1785,WI,4,1,TRAY,elevator,UR,2.6390,NR,3.0000
5,1,5,58.2361,-46.2345,WO,4,1,SUBMARINE,rope_bridge,R,2.9544,NR,3.0000
6,1,6,70.2933,-58.2922,WO,4,2,SUBMARINE,rope_bridge,R,2.4029,NR,3.0000
7,1,7,82.3495,-70.3474,WI,2,1,ICICLE,chicken_coop,UR,2.0446,NR,3.0000
8,1,8,94.4075,-82.4058,WO,4,1,PUMPKIN,forest_path,R,2.0939,NR,3.0000
9,1,9,106.4644,-94.4628,WI,2,1,LANTERN,office,UR,1.6934,NR,3.0000
10,1,10,118.5212,-106.5195,WO,4,1,BALLOON,market,UR,1.6425,NR,3.0000
11,1,11,130.5789,-118.5779,WO,2,1,FORK,power_plant,UR,2.2285,NR,3.0000
12,1,12,142.6352,-130.6339,WO,4,1,PANTS,outhouse,R,1.9141,NR,3.0000
13,1,13,154.6925,-142.6909,WI,4,1,OLIVE,auto_factory,UR,2.3235,NR,3.0000
14,1,14,166.7493,-154.7477,WI,4,2,OLIVE,auto_factory,UR,1.4858,NR,3.0000
15,1,15,178.8061,-166.8038,WI,4,1,CLOAK,ice_skating_rink,UR,2.5455,NR,3.0000
16,1,16,190.8640,-178.8631,WO,4,2,SNAIL,gazebo,UR,1.7711,NR,3.0000
17,1,17,202.9203,-190.9186,WI,2,1,POSTER,beauty_salon,R,2.1295,NR,3.0000
18,1,18,214.9781,-202.9764,WI,4,1,MUSTARD,closet,R,2.5443,NR,3.0000
19,1,19,227.0354,-215.0342,WO,2,1,LETTUCE,boardwalk,R,1.8590,NR,3.0000
20,1,20,239.0920,-227.0904,WI,4,2,SYRUP,kennel,R,1.3926,NR,3.0000
21,1,21,251.1494,-239.1487,WO,4,2,PANTS,outhouse,R,1.1780,NR,3.0000
22,1,22,263.2055,-251.2039,WI,4,2,MUSTARD,closet,R,1.1512,NR,3.0000
23,1,23,275.2624,-263.2611,WO,2,1,GEESE,landing_deck,R,2.3789,NR,3.0000
24,1,24,287.3189,-275.3181,WO,4,2,BALLOON,market,UR,1.6272,NR,3.0000
25,1,25,299.3751,-287.3739,WO,4,2,PUMPKIN,forest_path,R,1.8163,NR,3.0000
26,1,26,311.4325,-299.4304,WI,4,1,OATMEAL,basement,NR,999.0000,NR,3.0000
27,1,27,323.4900,-311.4880,WI,2,1,SCISSORS,kindergarden_classroom,R,1.3834,NR,3.0000
28,1,28,335.5481,-323.5474,WO,2,1,ROCK,crevasse,R,1.7630,NR,3.0000
29,1,29,347.6045,-335.6025,WI,4,1,MILK,lobby,UR,1.3576,NR,3.0000
30,1,30,359.6622,-347.6610,WI,4,2,OATMEAL,basement,UR,1.0461,NR,3.0000
31,1,31,371.7200,-359.7180,WI,4,2,TRAY,elevator,UR,1.6021,NR,3.0000
32,1,32,383.7776,-371.7762,WO,4,1,WHIP,ocean,UR,1.3571,NR,3.0000
33,1,33,395.8349,-383.8330,WI,2,1,GLOVE,badminton_court,UR,1.8714,NR,3.0000
34,1,34,407.8919,-395.8909,WO,2,1,FAN,greenhouse,R,2.0747,NR,3.0000
35,1,35,419.9483,-407.9472,WI,4,2,MILK,lobby,R,1.4004,NR,3.0000
36,1,36,432.0049,-420.0037,WI,4,2,CLOAK,ice_skating_rink,R,2.0160,NR,3.0000
37,1,37,444.0616,-432.0600,WO,4,1,EMPEROR,ice_shelf,R,1.9923,NR,3.0000
38,1,38,456.1193,-444.1177,WO,2,1,MUFFIN,mountain,UR,1.5238,NR,3.0000
39,1,39,468.1764,-456.1744,WI,2,1,BANANA,jewelry_shop,UR,2.0263,NR,3.0000
40,1,40,480.2339,-468.2329,WO,4,2,WHIP,ocean,UR,1.1836,NR,3.0000
41,1,41,492.2909,-480.2893,WO,4,2,EMPEROR,ice_shelf,R,1.2931,NR,3.0000
42,1,42,504.3480,-492.3464,WO,2,1,NIGHTGOWN,general_store,UR,2.2806,NR,3.0000
43,2,19,10.0027,1.9997,WO,4,1,MEDICINE,rice_paddy,UR,2.2654,NR,3.0000
44,2,20,22.0591,-10.0570,WO,2,1,TROPHY,fountain,UR,2.2807,NR,3.0000
45,2,21,34.1133,-22.1122,WI,4,1,HAMMER,library,UR,2.0915,NR,3.0000
46,2,22,46.1668,-34.1661,WO,4,2,MEDICINE,rice_paddy,UR,1.9756,NR,3.0000
47,2,23,58.2197,-46.2180,WO,4,1,TOBACCO,oilrig,R,1.7548,NR,3.0000
48,2,24,70.2736,-58.2716,WI,2,1,QUILL,brewery,R,2.3501,NR,3.0000
49,2,25,82.3283,-70.3274,WO,4,1,ARROW,highway,R,2.6008,NR,3.0000
50,2,26,94.3813,-82.3804,WI,4,1,DETECTIVE,operating_room,UR,2.7272,NR,3.0000
51,2,27,106.4348,-94.4338,WO,2,1,ROSARY,patio,UR,1.7744,NR,3.0000
52,2,28,118.4880,-106.4859,WI,2,1,SAIL,engine_room,UR,1.3798,NR,3.0000
53,2,29,130.5426,-118.5415,WI,4,1,OMELET,jail_cell,UR,1.8205,NR,3.0000
54,2,30,142.5967,-130.5937,WI,4,1,MOON,shopping_mall,R,2.0735,NR,3.0000
55,2,31,154.6522,-142.6502,WO,2,1,WAND,igloo,R,2.2131,NR,3.0000
56,2,32,166.7070,-154.7061,WI,2,1,APPLE,reception,R,2.3577,NR,3.0000
57,2,33,178.7600,-166.7581,WO,4,1,SEAWEED,river,R,2.5422,NR,3.0000
58,2,34,190.8142,-178.8108,WI,4,1,NOODLE,athletic_field,UR,2.4060,NR,3.0000
59,2,35,202.8700,-190.8685,WI,4,1,WRENCH,hospital_room,UR,2.0153,NR,3.0000
60,2,36,214.9237,-202.9221,WO,4,2,TOBACCO,oilrig,R,1.8819,NR,3.0000
61,2,37,226.9783,-214.9764,WI,4,2,HAMMER,library,R,1.9313,NR,3.0000
62,2,38,239.0324,-227.0302,WI,2,1,SCOTCH,music_store,R,1.7870,NR,3.0000
63,2,39,251.0867,-239.0849,WO,2,1,PIE,fishpond,UR,1.8972,UR,9.0678
64,2,40,263.1413,-251.1396,WI,4,2,NOODLE,athletic_field,UR,1.6400,NR,3.0000
65,2,41,275.1953,-263.1938,WI,4,2,OMELET,jail_cell,R,2.3372,NR,3.0000
66,2,42,287.2495,-275.2483,WO,4,1,BUCKET,amphitheater,R,1.3474,NR,3.0000
67,2,43,299.3032,-287.3015,WI,2,1,TEETH,optician,R,2.4242,NR,3.0000
68,2,44,311.3572,-299.3551,WO,2,1,PYTHON,carrousel,UR,2.2120,NR,3.0000
69,2,45,323.4123,-311.4095,WO,4,2,BUCKET,amphitheater,R,1.6114,NR,3.0000
70,2,46,335.4674,-323.4641,WI,4,2,DETECTIVE,operating_room,R,1.3520,NR,3.0000
71,2,47,347.5237,-335.5223,WO,4,1,BENCH,putting_green,UR,1.4646,NR,3.0000
72,2,48,359.5774,-347.5759,WI,2,1,RICE,bookstore,UR,1.4212,NR,3.0000
73,2,49,371.6313,-359.6299,WO,4,2,BENCH,putting_green,R,1.6575,NR,3.0000
74,2,50,383.6859,-371.6839,WO,4,1,WINE,mausoleum,R,2.1845,NR,3.0000
75,2,51,395.7404,-383.7396,WI,4,2,WRENCH,hospital_room,UR,2.2712,NR,3.0000
76,2,52,407.7943,-395.7931,WI,4,1,STOMACH,lecture_room,R,1.8425,NR,3.0000
77,2,53,419.8478,-407.8462,WI,4,2,MOON,shopping_mall,R,1.4259,NR,3.0000
78,2,54,431.9022,-419.9003,WO,4,2,ARROW,highway,R,1.2620,NR,3.0000
79,2,55,443.9569,-431.9553,WO,2,1,NECKLACE,office_building,UR,1.9195,NR,3.0000
80,2,56,456.0110,-444.0094,WI,4,2,STOMACH,lecture_room,R,1.3161,NR,3.0000
81,2,57,468.0658,-456.0638,WI,2,1,MOTH,bakery,UR,2.5977,NR,3.0000
82,2,58,480.1202,-468.1191,WO,2,1,SCOOTER,garbage_dump,R,2.1013,NR,3.0000
83,2,59,492.1737,-480.1723,WO,4,2,SEAWEED,river,R,1.3336,NR,3.0000
84,2,60,504.2283,-492.2260,WO,4,2,WINE,mausoleum,R,1.4380,NR,3.0000
85,3,37,10.0010,2.0001,WO,4,1,OYSTER,picnic_area,UR,2.0443,NR,3.0000
86,3,38,22.0613,-10.0597,WI,4,1,TURTLE,florist_shop,R,2.3604,NR,3.0000
87,3,39,34.1195,-22.1176,WO,4,1,OTTER,mountain_snowy,R,2.2632,NR,3.0000
88,3,40,46.1781,-34.1768,WI,4,1,BATON,courtroom,UR,2.0696,NR,3.0000
89,3,41,58.2367,-46.2358,WO,2,1,EAGLE,electrical_substation,UR,1.8115,NR,3.0000
90,3,42,70.2945,-58.2911,WI,4,1,ROPE,auditorium,R,2.1949,NR,3.0000
91,3,43,82.3551,-70.3541,WO,4,2,OYSTER,picnic_area,R,2.4678,NR,3.0000
92,3,44,237.4040,-225.4030,WI,4,2,TURTLE,florist_shop,R,1.5914,NR,3.0000
93,3,45,249.4619,-237.4597,WO,2,1,SOCK,pavilion,R,2.0846,NR,3.0000
94,3,46,261.5214,-249.5188,WO,2,1,SCREWDRIVER,badlands,UR,2.1478,NR,3.0000
95,3,47,273.5808,-261.5790,WI,4,1,SHARK,subway_interior,R,2.1759,NR,3.0000
96,3,48,285.6395,-273.6384,WI,4,1,TIGER,television_studio,UR,1.5718,NR,3.0000
97,3,49,297.6980,-285.6970,WI,4,2,ROPE,auditorium,R,1.3924,NR,3.0000
98,3,50,309.7560,-297.7545,WO,4,1,TABLE,plaza,NR,999.0000,UR,3.0335
99,3,51,321.8150,-309.8134,WO,4,1,NEST,corral,UR,1.5911,NR,3.0000
100,3,52,333.8739,-321.8729,WI,2,1,TYPEWRITER,drugstore,UR,1.7291,NR,3.0000
101,3,53,345.9318,-333.9307,WO,4,1,SEAL,playground,R,1.2252,NR,3.0000
102,3,54,357.9903,-345.9882,WO,2,1,STAPLER,desert,UR,1.6556,NR,3.0000
103,3,55,370.0493,-358.0485,WI,4,1,CANNON,cloister,UR,1.9855,NR,3.0000
104,3,56,382.1075,-370.1062,WI,2,1,PASTE,playroom,R,1.9471,NR,3.0000
105,3,57,394.1659,-382.1640,WO,2,1,KNIFE,barn,UR,1.4101,NR,3.0000
106,3,58,406.2247,-394.2231,WI,2,1,SOUP,bowling_alley,UR,2.1032,NR,3.0000
107,3,59,418.2839,-406.2821,WI,2,1,ENVELOPE,cafeteria,UR,2.2527,NR,3.0000
108,3,60,430.3427,-418.3417,WO,4,1,LAMB,moat,UR,2.4166,NR,3.0000
109,3,61,442.4012,-430.3993,WO,4,1,RAKE,rock_arch,UR,1.6728,NR,3.0000
110,3,62,454.4600,-442.4586,WI,2,1,BIBLE,cockpit,NR,999.0000,R,3.0397
111,3,63,466.5184,-454.5176,WO,4,2,LAMB,moat,R,2.0479,NR,3.0000
112,3,64,478.5768,-466.5760,WI,4,1,HAM,sauna,UR,1.9508,NR,3.0000
113,3,65,490.6346,-478.6327,WO,4,2,NEST,corral,UR,1.8214,NR,3.0000
114,3,66,502.6941,-490.6926,WI,4,2,CANNON,cloister,R,1.7030,NR,3.0000
115,3,67,514.7526,-502.7508,WI,4,2,TIGER,television_studio,UR,2.2545,NR,3.0000
116,3,68,526.8115,-514.8094,WI,2,1,SPATULA,hotel_room,UR,2.3770,NR,3.0000
117,3,69,538.8713,-526.8694,WO,2,1,BROOM,ice_floe,UR,2.6080,NR,3.0000
118,3,70,550.9304,-538.9286,WI,2,1,SHOVEL,stable,UR,1.8887,NR,3.0000
119,3,71,562.9899,-550.9877,WO,4,2,SEAL,playground,R,1.5471,NR,3.0000
120,3,72,575.0489,-563.0468,WO,4,2,OTTER,mountain_snowy,R,1.6313,NR,3.0000
121,3,73,587.1081,-575.1071,WI,4,2,BATON,courtroom,UR,1.4200,NR,3.0000
122,3,74,599.1669,-587.1657,WI,4,2,SHARK,subway_interior,R,1.3548,NR,3.0000
123,3,75,611.2250,-599.2241,WO,4,2,RAKE,rock_arch,UR,1.3662,NR,3.0000
124,3,76,623.2839,-611.2829,WI,4,2,HAM,sauna,UR,1.3423,NR,3.0000
125,3,77,635.3419,-623.3409,WO,2,1,TELEGRAPH,heliport,R,2.4347,NR,3.0000
126,3,78,647.4000,-635.3990,WO,4,2,TABLE,plaza,R,2.0709,NR,3.0000
127,4,55,10.0016,1.9996,WI,2,1,MITTEN,galley,R,2.6655,NR,3.0000
128,4,56,22.0625,-10.0615,WI,4,1,SOAP,limousine_interior,R,2.0362,NR,3.0000
129,4,57,34.1210,-22.1191,WI,2,1,ROCKER,cathedral,R,2.3361,NR,3.0000
130,4,58,46.1803,-34.1783,WO,4,1,CHOCOLATE,observatory,UR,2.0333,NR,3.0000
131,4,59,58.2401,-46.2382,WI,4,1,CEREAL,supermarket,R,2.7978,NR,3.0000
132,4,60,70.3003,-58.2981,WO,4,1,VIOLIN,fire_escape,UR,2.4863,NR,3.0000
133,4,61,82.3599,-70.3590,WO,4,2,CHOCOLATE,observatory,R,2.5044,NR,3.0000
134,4,62,94.4189,-82.4172,WI,4,1,ELEPHANT,parlor,R,1.6393,NR,3.0000
135,4,63,106.4778,-94.4767,WO,4,1,SCROLL,hill,R,2.3715,NR,3.0000
136,4,64,118.5369,-106.5353,WI,4,1,SHRIMP,bus_interior,UR,2.3849,NR,3.0000
137,4,65,130.5955,-118.5933,WO,2,1,PENNY,labyrinth,UR,2.3278,NR,3.0000
138,4,66,142.6551,-130.6539,WI,2,1,DESK,ballroom,R,1.6740,NR,3.0000
139,4,67,154.7143,-142.7133,WO,2,1,CHEESE,raceway,UR,2.2187,NR,3.0000
140,4,68,166.7728,-154.7721,WI,2,1,QUARTER,pulpit,UR,1.9227,NR,3.0000
141,4,69,178.8317,-166.8291,WO,4,1,TRIBE,beach,R,2.6436,NR,3.0000
142,4,70,190.8926,-178.8916,WI,2,1,MAP,volleyball_court,UR,1.7085,NR,3.0000
143,4,71,202.9510,-190.9499,WO,4,1,STOOL,corn_field,R,2.7856,NR,3.0000
144,4,72,215.0099,-203.0080,WI,4,1,BELL,restaurant_kitchen,UR,2.0675,NR,3.0000
145,4,73,227.0690,-215.0680,WO,4,1,ASPIRIN,botanical_garden,UR,2.0206,NR,3.0000
146,4,74,239.1280,-227.1272,WI,4,1,ARMOR,bistro,UR,1.9716,NR,3.0000
147,4,75,251.1861,-239.1839,WO,4,2,SCROLL,hill,R,1.4403,NR,3.0000
148,4,76,263.2460,-251.2446,WO,2,1,RIFLE,baseball_field,UR,1.9385,NR,3.0000
149,4,77,275.3054,-263.3043,WO,2,1,EYE,ruin,UR,1.6175,NR,3.0000
150,4,78,287.3640,-275.3628,WI,4,2,ARMOR,bistro,R,2.5784,NR,3.0000
151,4,79,299.4236,-287.4217,WO,4,2,TRIBE,beach,R,1.7205,NR,3.0000
152,4,80,311.4833,-299.4822,WI,4,2,BELL,restaurant_kitchen,UR,2.5948,NR,3.0000
153,4,81,323.5423,-311.5413,WO,4,2,ASPIRIN,botanical_garden,R,2.0271,NR,3.0000
154,4,82,335.6017,-323.5998,WI,2,1,BUTTER,bedroom,UR,2.1807,NR,3.0000
155,4,83,347.6610,-335.6589,WO,2,1,DRUM,kasbah,UR,2.3429,NR,3.0000
156,4,84,359.7212,-347.7196,WO,2,1,SWORD,cottage_garden,UR,1.9333,NR,3.0000
157,4,85,371.7804,-359.7791,WI,4,2,ELEPHANT,parlor,R,1.5142,NR,3.0000
158,4,86,383.8394,-371.8384,WI,2,1,HARPOON,archive,R,1.9844,NR,3.0000
159,4,87,395.8984,-383.8966,WI,4,1,CANE,garage,UR,2.5654,NR,3.0000
160,4,88,407.9576,-395.9565,WO,4,1,PIGEON,athletic_field,R,1.8985,NR,3.0000
161,4,89,420.0164,-408.0141,WO,2,1,YACHT,bayou,R,1.7838,NR,3.0000
162,4,90,432.0764,-420.0751,WO,4,2,PIGEON,athletic_field,R,1.5007,NR,3.0000
163,4,91,444.1353,-432.1339,WI,4,2,SHRIMP,bus_interior,UR,2.0187,NR,3.0000
164,4,92,456.1946,-444.1938,WI,4,2,CANE,garage,R,2.0205,NR,3.0000
165,4,93,468.2530,-456.2520,WO,4,2,VIOLIN,fire_escape,R,1.2992,NR,3.0000
166,4,94,480.3121,-468.3109,WO,4,2,STOOL,corn_field,R,2.1469,NR,3.0000
167,4,95,492.3709,-480.3688,WI,4,2,SOAP,limousine_interior,R,1.7458,NR,3.0000
168,4,96,504.4310,-492.4297,WI,4,2,CEREAL,supermarket,R,1.2698,NR,3.0000
169,5,73,10.0038,1.9975,WO,2,1,VODKA,excavation,R,2.3764,NR,3.0000
170,5,74,22.0720,-10.0699,WI,2,1,KALE,parking_garage,UR,1.1269,NR,3.0000
171,5,75,34.1383,-22.1366,WO,2,1,FENCE,hayfield,R,1.5530,NR,3.0000
172,5,76,46.2044,-34.2021,WO,4,1,LIGHTNING,watering_hole,R,2.2684,NR,3.0000
173,5,77,58.2715,-46.2698,WI,4,1,TROLLEY,music_studio,UR,1.6079,NR,3.0000
174,5,78,70.3377,-58.3356,WO,4,1,BONE,house,UR,2.9789,NR,3.0000
175,5,79,82.4048,-70.4035,WO,2,1,BABY,manufactured_home,R,1.8322,NR,3.0000
176,5,80,94.4705,-82.4688,WI,4,1,SARDINE,butchers_shop,R,2.4274,NR,3.0000
177,5,81,106.5367,-94.5349,WI,4,1,RUDDER,amusement_arcade,R,2.2335,NR,3.0000
178,5,82,118.6030,-106.6006,WI,4,2,SARDINE,butchers_shop,R,1.8523,NR,3.0000
179,5,83,130.6699,-118.6690,WO,4,2,LIGHTNING,watering_hole,R,1.3553,NR,3.0000
180,5,84,142.7352,-130.7345,WO,4,1,ORCHID,bamboo_forest,R,1.9460,NR,3.0000
181,5,85,154.8007,-142.7990,WI,4,1,SOOT,orchestra_pit,UR,1.6548,NR,3.0000
182,5,86,166.8670,-154.8662,WO,4,1,HONEY,hangar,R,1.7630,NR,3.0000
183,5,87,178.9328,-166.9301,WI,4,1,BRAIN,aquarium,R,1.9679,NR,3.0000
184,5,88,190.9999,-178.9983,WI,2,1,FOX,gymnasium,R,2.6364,NR,3.0000
185,5,89,203.0666,-191.0646,WO,4,1,NET,aqueduct,UR,1.9116,NR,3.0000
186,5,90,215.1332,-203.1314,WO,2,1,BOOT,lock_chamber,UR,1.9047,NR,3.0000
187,5,91,227.1998,-215.1977,WI,2,1,BROWNIE,art_gallery,UR,2.2725,NR,3.0000
188,5,92,239.2665,-227.2649,WI,4,2,SOOT,orchestra_pit,UR,1.4526,NR,3.0000
189,5,93,251.3328,-239.3311,WI,4,2,BRAIN,aquarium,R,1.2435,NR,3.0000
190,5,94,263.3997,-251.3980,WO,4,1,CROWN,boat_deck,UR,2.7194,NR,3.0000
191,5,95,275.4659,-263.4649,WO,4,1,BEAVER,lift_bridge,R,1.7591,NR,3.0000
192,5,96,287.5314,-275.5294,WI,4,1,ACCORDIAN,biology_laboratory,UR,1.9969,NR,3.0000
193,5,97,299.5986,-287.5977,WO,2,1,BOAT,lighthouse,R,1.3116,NR,3.0000
194,5,98,311.6641,-299.6632,WI,4,2,RUDDER,amusement_arcade,R,1.3704,NR,3.0000
195,5,99,323.7302,-311.7284,WO,2,1,CLARINET,herb_garden,UR,1.8021,NR,3.0000
196,5,100,335.7967,-323.7945,WI,4,2,TROLLEY,music_studio,UR,1.4922,NR,3.0000
197,5,101,347.8635,-335.8619,WI,2,1,POWDER,airplane_cabin,R,2.5357,NR,3.0000
198,5,102,359.9302,-347.9281,WI,4,1,TOAST,burial_chamber,UR,2.7290,NR,3.0000
199,5,103,371.9970,-359.9949,WO,4,2,BONE,house,R,1.9621,NR,3.0000
200,5,104,384.0645,-372.0626,WO,2,1,STORK,mosque,UR,2.1084,NR,3.0000
201,5,105,396.1313,-384.1298,WI,2,1,DAMSEL,natural_history_museum,NR,999.0000,UR,3.0244
202,5,106,408.1975,-396.1967,WO,4,2,ORCHID,bamboo_forest,R,1.2737,NR,3.0000
203,5,107,420.2637,-408.2625,WO,4,2,NET,aqueduct,UR,2.1870,NR,3.0000
204,5,108,432.3295,-420.3276,WI,4,2,ACCORDIAN,biology_laboratory,UR,1.9987,NR,3.0000
205,5,109,444.3967,-432.3944,WI,2,1,TOWEL,art_studio,UR,2.1313,NR,3.0000
206,5,110,456.4636,-444.4614,WO,4,2,HONEY,hangar,R,1.8867,NR,3.0000
207,5,111,468.5304,-456.5284,WO,4,2,CROWN,boat_deck,UR,1.5886,NR,3.0000
208,5,112,480.5976,-468.5964,WO,4,2,BEAVER,lift_bridge,R,1.2976,NR,3.0000
209,5,113,492.6634,-480.6627,WI,4,2,TOAST,burial_chamber,R,1.3327,NR,3.0000
210,5,114,504.7311,-492.7290,WI,2,1,DIAMOND,nursery,R,2.2593,NR,3.0000
211,6,91,10.0022,2.0006,WO,4,1,WALRUS,bullring,R,1.8675,NR,3.0000
212,6,92,22.0686,-10.0679,WO,4,1,MUSSEL,lido_deck,R,2.3344,NR,3.0000
213,6,93,34.1307,-22.1289,WI,4,1,VELVET,riding_arena,UR,2.1465,NR,3.0000
214,6,94,46.1942,-34.1933,WO,4,2,MUSSEL,lido_deck,R,0.8658,NR,3.0000
215,6,95,58.2565,-46.2543,WI,2,1,BOWL,kitchenette,R,1.9465,NR,3.0000
216,6,96,70.3200,-58.3181,WO,2,1,GOAT,basketball_court,UR,2.1679,NR,3.0000
217,6,97,82.3832,-70.3825,WI,2,1,MONKEY,stage,UR,1.7643,NR,3.0000
218,6,98,94.4451,-82.4438,WI,4,1,KILT,toyshop,UR,1.4437,NR,3.0000
219,6,99,106.5082,-94.5059,WI,2,1,HOOK,fastfood_restaurant,R,1.6598,NR,3.0000
220,6,100,118.5718,-106.5696,WO,4,1,MEDAL,crosswalk,UR,1.5182,NR,3.0000
221,6,101,130.6353,-118.6341,WI,4,1,CRAB,assembly_line,R,1.6538,NR,3.0000
222,6,102,142.6985,-130.6972,WI,4,2,KILT,toyshop,R,1.6295,NR,3.0000
223,6,103,154.7609,-142.7596,WO,2,1,PEARL,hotel,R,2.4124,NR,3.0000
224,6,104,166.8242,-154.8223,WI,2,1,CRADLE,candy_store,UR,2.5217,NR,3.0000
225,6,105,178.8874,-166.8856,WI,4,1,SPONGE,cubicle,NR,999.0000,R,3.1032
226,6,106,190.9508,-178.9493,WO,4,1,ROSE,canyon,R,1.4135,NR,3.0000
227,6,107,203.0140,-191.0130,WI,4,2,VELVET,riding_arena,R,2.4646,NR,3.0000
228,6,108,215.0764,-203.0750,WO,4,1,DOVE,castle,R,2.3484,NR,3.0000
229,6,109,227.1397,-215.1381,WO,2,1,TULIP,iceberg,R,1.8074,NR,3.0000
230,6,110,239.2028,-227.2017,WI,4,1,LIME,locker_room,UR,1.8287,NR,3.0000
231,6,111,251.2654,-239.2631,WO,2,1,NAPKIN,dam,R,1.9359,NR,3.0000
232,6,112,263.3292,-251.3276,WI,2,1,ACROBAT,catacomb,UR,2.4394,NR,3.0000
233,6,113,275.3923,-263.3906,WO,2,1,SCAB,cliff,R,2.5130,NR,3.0000
234,6,114,287.4561,-275.4538,WO,4,2,DOVE,castle,R,1.1954,NR,3.0000
235,6,115,299.5200,-287.5177,WI,4,1,CAMERA,theater,UR,2.4866,NR,3.0000
236,6,116,311.5838,-299.5825,WO,4,1,SALAD,dock,UR,2.9502,NR,3.0000
237,6,117,323.6473,-311.6465,WO,4,2,MEDAL,crosswalk,UR,2.3763,NR,3.0000
238,6,118,335.7096,-323.7085,WI,4,2,LIME,locker_room,R,2.1963,NR,3.0000
239,6,119,347.7722,-335.7714,WI,4,2,SPONGE,cubicle,R,1.2886,NR,3.0000
240,6,120,359.8347,-347.8335,WO,2,1,SHOWER,boathouse,R,0.9562,NR,3.0000
241,6,121,371.8973,-359.8960,WO,4,1,TORNADO,driving_range,R,1.7060,NR,3.0000
242,6,122,383.9609,-371.9597,WI,4,1,SAXOPHONE,movie_theater,R,1.9222,NR,3.0000
243,6,123,396.0236,-384.0225,WI,4,2,CAMERA,theater,R,1.5654,NR,3.0000
244,6,124,408.0870,-396.0858,WO,2,1,NEEDLE,pasture,R,2.2462,NR,3.0000
245,6,125,420.1498,-408.1483,WO,4,2,TORNADO,driving_range,R,1.3134,NR,3.0000
246,6,126,432.2130,-420.2122,WI,2,1,SHELL,ice_cream_parlor,UR,1.8824,NR,3.0000
247,6,127,444.2759,-432.2752,WO,4,2,WALRUS,bullring,R,1.4195,NR,3.0000
248,6,128,456.3386,-444.3366,WI,4,2,SAXOPHONE,movie_theater,R,1.2868,NR,3.0000
249,6,129,468.4027,-456.4003,WI,4,2,CRAB,assembly_line,R,1.3481,NR,3.0000
250,6,130,480.4669,-468.4653,WO,4,2,ROSE,canyon,R,1.3298,NR,3.0000
251,6,131,492.5302,-480.5269,WI,2,1,VINE,attic,R,2.4992,NR,3.0000
252,6,132,504.5956,-492.5944,WO,4,2,SALAD,dock,R,1.3928,NR,3.0000
253,7,109,10.0022,1.9985,WI,4,3,MILK,lobby,R,1.8200,NR,3.0000
254,7,110,22.0659,-10.0639,WO,2,2,MUFFIN,mountain,R,1.7856,NR,3.0000
255,7,111,34.1281,-22.1270,WO,4,3,EMPEROR,ice_shelf,R,1.4044,NR,3.0000
256,7,112,46.1895,-34.1874,WI,4,3,MUSTARD,closet,R,1.1537,NR,3.0000
257,7,113,58.2522,-46.2506,WO,4,3,SNAIL,gazebo,R,1.5629,NR,3.0000
258,7,114,70.3138,-58.3117,WI,2,2,SCISSORS,kindergarden_classroom,R,1.0381,NR,3.0000
259,7,115,82.3761,-70.3750,WI,4,3,OLIVE,auto_factory,R,2.2077,NR,3.0000
260,7,116,94.4373,-82.4364,WI,4,4,MILK,lobby,R,1.2654,NR,3.0000
261,7,117,106.4986,-94.4972,WO,4,3,PUMPKIN,forest_path,R,1.5422,NR,3.0000
262,7,118,118.5609,-106.5589,WO,4,3,WHIP,ocean,R,1.7400,NR,3.0000
263,7,119,130.6229,-118.6218,WI,4,3,CLOAK,ice_skating_rink,R,1.1997,NR,3.0000
264,7,120,142.6841,-130.6825,WO,4,4,EMPEROR,ice_shelf,R,1.5104,NR,3.0000
265,7,121,154.7461,-142.7454,WO,2,2,LETTUCE,boardwalk,R,1.6202,NR,3.0000
266,7,122,166.8067,-154.8059,WI,4,4,CLOAK,ice_skating_rink,R,1.2644,NR,3.0000
267,7,123,178.8683,-166.8676,WI,2,2,POSTER,beauty_salon,R,1.6234,R,10.7707
268,7,124,190.9294,-178.9271,WO,4,3,PANTS,outhouse,R,1.3406,NR,3.0000
269,7,125,202.9915,-190.9905,WO,2,2,ROCK,crevasse,R,2.2711,NR,3.0000
270,7,126,215.0535,-203.0524,WO,2,2,FAN,greenhouse,R,1.2590,NR,3.0000
271,7,127,227.1144,-215.1122,WI,2,2,ICICLE,chicken_coop,R,1.8749,NR,3.0000
272,7,128,239.1772,-227.1755,WI,4,3,TRAY,elevator,R,1.7314,NR,3.0000
273,7,129,251.2389,-239.2371,WI,4,4,OLIVE,auto_factory,R,1.2942,NR,3.0000
274,7,130,263.3022,-251.3009,WO,4,3,SUBMARINE,rope_bridge,R,2.3778,R,4.7018
275,7,131,275.3640,-263.3620,WO,4,3,BALLOON,market,UR,1.4122,NR,3.0000
276,7,132,287.4265,-275.4251,WI,4,3,OATMEAL,basement,UR,1.4066,NR,3.0000
277,7,133,299.4890,-287.4873,WO,2,2,GEESE,landing_deck,R,2.0632,UR,10.4083
278,7,134,311.5507,-299.5497,WI,4,4,MUSTARD,closet,R,0.9550,NR,3.0000
279,7,135,323.6119,-311.6090,WO,2,2,FORK,power_plant,R,1.5426,NR,3.0000
280,7,136,335.6753,-323.6744,WO,4,4,SNAIL,gazebo,R,1.4046,NR,3.0000
281,7,137,347.7364,-335.7354,WO,4,4,WHIP,ocean,R,0.9000,NR,3.0000
282,7,138,359.7981,-347.7961,WI,2,2,GLOVE,badminton_court,R,1.4854,NR,3.0000
283,7,139,371.8604,-359.8598,WI,2,2,LANTERN,office,R,1.7301,NR,3.0000
284,7,140,383.9214,-371.9200,WO,4,4,BALLOON,market,R,2.8678,R,3.0877
285,7,141,395.9829,-383.9811,WO,4,4,PANTS,outhouse,R,1.3137,NR,3.0000
286,7,142,408.0448,-396.0432,WI,2,2,BANANA,jewelry_shop,UR,2.2243,NR,3.0000
287,7,143,420.1072,-408.1061,WI,4,4,TRAY,elevator,R,2.0477,NR,3.0000
288,7,144,432.1684,-420.1676,WO,4,4,SUBMARINE,rope_bridge,R,1.6243,NR,3.0000
289,7,145,444.2301,-432.2283,WI,4,4,OATMEAL,basement,UR,2.1847,NR,3.0000
290,7,146,456.2920,-444.2905,WI,2,2,MAGICIAN,baggage_claim,R,1.6068,NR,3.0000
291,7,147,468.3533,-456.3516,WO,2,2,NIGHTGOWN,general_store,UR,1.4326,NR,3.0000
292,7,148,480.4158,-468.4140,WO,4,4,PUMPKIN,forest_path,R,1.7087,NR,3.0000
293,7,149,492.4778,-480.4755,WI,4,3,SYRUP,kennel,R,1.3022,NR,3.0000
294,7,150,504.5413,-492.5399,WI,4,4,SYRUP,kennel,R,1.3473,NR,3.0000
295,8,127,10.0028,1.9994,WI,4,3,MOON,shopping_mall,R,1.1360,NR,4.8592
296,8,128,22.0698,-10.0673,WO,4,3,TOBACCO,oilrig,R,2.2684,NR,3.0000
297,8,129,34.1349,-22.1328,WI,2,2,RICE,bookstore,R,1.7132,NR,3.0000
298,8,130,46.1991,-34.1971,WO,4,4,TOBACCO,oilrig,R,1.5391,NR,3.0000
299,8,131,58.2631,-46.2617,WO,2,2,WAND,igloo,R,1.2004,NR,3.0000
300,8,132,70.3266,-58.3249,WI,4,3,STOMACH,lecture_room,R,1.8369,NR,3.0000
301,8,133,82.3904,-70.3882,WO,2,2,SCOOTER,garbage_dump,R,1.1953,NR,3.0000
302,8,134,94.4550,-82.4529,WI,2,2,QUILL,brewery,R,1.3483,NR,3.0000
303,8,135,106.5191,-94.5183,WO,4,3,ARROW,highway,R,1.3477,NR,3.0000
304,8,136,118.5820,-106.5794,WI,2,2,TEETH,optician,R,1.3471,NR,3.0000
305,8,137,130.6465,-118.6449,WI,4,3,OMELET,jail_cell,R,1.5180,NR,3.0000
306,8,138,142.7102,-130.7081,WI,4,3,HAMMER,library,R,1.2847,NR,3.0000
307,8,139,154.7743,-142.7721,WO,4,3,MEDICINE,rice_paddy,UR,2.9336,NR,3.0000
308,8,140,166.8389,-154.8379,WO,2,2,NECKLACE,office_building,R,2.0593,NR,3.0000
309,8,141,178.9020,-166.9008,WO,4,3,BENCH,putting_green,R,1.4549,NR,3.0000
310,8,142,190.9658,-178.9639,WI,4,3,NOODLE,athletic_field,UR,1.7309,NR,3.0000
311,8,143,203.0297,-191.0277,WI,2,2,SAIL,engine_room,UR,1.9228,NR,3.0000
312,8,144,215.0941,-203.0931,WO,4,3,BUCKET,amphitheater,R,1.7107,NR,3.0000
313,8,145,227.1577,-215.1564,WO,2,2,ROSARY,patio,UR,1.9213,NR,3.0000
314,8,146,239.2210,-227.2197,WI,4,4,STOMACH,lecture_room,R,0.9654,NR,3.0000
315,8,147,251.2850,-239.2827,WI,2,2,APPLE,reception,R,1.1200,NR,3.0000
316,8,148,263.3492,-251.3483,WO,4,3,WINE,mausoleum,R,1.1088,NR,3.0000
317,8,149,275.4124,-263.4115,WI,4,4,MOON,shopping_mall,R,0.8657,NR,3.0000
318,8,150,287.4760,-275.4745,WO,4,4,ARROW,highway,R,1.3619,NR,3.0000
319,8,151,299.5395,-287.5385,WI,4,3,WRENCH,hospital_room,R,1.9186,NR,3.0000
320,8,152,311.6031,-299.6024,WI,4,4,WRENCH,hospital_room,R,1.4106,NR,3.0000
321,8,153,323.6660,-311.6648,WO,4,4,MEDICINE,rice_paddy,R,1.1093,NR,3.0000
322,8,154,335.7291,-323.7281,WI,4,4,OMELET,jail_cell,R,1.0231,NR,3.0000
323,8,155,347.7921,-335.7914,WI,4,3,DETECTIVE,operating_room,R,1.1916,NR,3.0000
324,8,156,359.8548,-347.8538,WO,2,2,PIE,fishpond,UR,2.3161,NR,3.0000
325,8,157,371.9179,-359.9161,WI,4,4,DETECTIVE,operating_room,R,1.4632,NR,3.0000
326,8,158,383.9820,-371.9801,WO,4,4,BENCH,putting_green,R,1.4128,NR,3.0000
327,8,159,396.0462,-384.0445,WO,4,4,WINE,mausoleum,R,0.9604,NR,3.0000
328,8,160,408.1106,-396.1098,WI,4,4,HAMMER,library,R,0.6451,NR,3.0000
329,8,161,420.1733,-408.1713,WO,4,4,BUCKET,amphitheater,R,0.7634,NR,3.0000
330,8,162,432.2382,-420.2360,WI,2,2,SCOTCH,music_store,R,1.4795,NR,3.0000
331,8,163,444.3028,-432.3008,WO,2,2,TROPHY,fountain,R,1.2690,NR,3.0000
332,8,164,456.3671,-444.3661,WI,2,2,MOTH,bakery,UR,2.0935,NR,3.0000
333,8,165,468.4306,-456.4288,WO,2,2,PYTHON,carrousel,UR,1.2792,NR,3.0000
334,8,166,480.4946,-468.4937,WI,4,4,NOODLE,athletic_field,UR,1.1930,NR,3.0000
335,8,167,492.5582,-480.5568,WO,4,3,SEAWEED,river,R,1.4999,NR,3.0000
336,8,168,504.6215,-492.6208,WO,4,4,SEAWEED,river,R,1.1365,NR,3.0000
337,9,145,10.0025,1.9986,WI,4,3,ROPE,auditorium,R,1.7819,NR,3.0000
338,9,146,22.0718,-10.0703,WO,2,2,SCREWDRIVER,badlands,UR,1.4152,NR,3.0000
339,9,147,34.1382,-22.1362,WO,4,3,SEAL,playground,R,1.1847,NR,3.0000
340,9,148,46.2063,-34.2055,WI,2,2,TYPEWRITER,drugstore,UR,2.2371,NR,3.0000
341,9,149,58.2723,-46.2703,WO,4,3,OTTER,mountain_snowy,R,1.2895,NR,3.0000
342,9,150,70.3393,-58.3373,WI,4,3,TIGER,television_studio,UR,1.2081,NR,3.0000
343,9,151,82.4074,-70.4066,WO,4,3,LAMB,moat,R,1.4523,NR,3.0000
344,9,152,94.4735,-82.4712,WI,4,3,CANNON,cloister,R,1.0916,NR,3.0000
345,9,153,106.5419,-94.5408,WI,2,2,ENVELOPE,cafeteria,R,2.7071,UR,3.3332
346,9,154,118.6082,-106.6060,WO,4,3,OYSTER,picnic_area,R,1.5327,NR,3.0000
347,9,155,130.6755,-118.6736,WO,2,2,TELEGRAPH,heliport,R,1.4767,NR,3.0000
348,9,156,142.7426,-130.7417,WO,4,3,RAKE,rock_arch,UR,1.2074,NR,3.0000
349,9,157,154.8086,-142.8072,WI,4,3,TURTLE,florist_shop,R,1.3734,NR,3.0000
350,9,158,166.8758,-154.8746,WI,4,3,BATON,courtroom,UR,1.4205,NR,3.0000
351,9,159,178.9425,-166.9413,WI,2,2,PASTE,playroom,R,1.5401,NR,3.0000
352,9,160,191.0094,-179.0077,WO,2,2,KNIFE,barn,R,2.0161,NR,3.0000
353,9,161,203.0770,-191.0751,WO,4,4,RAKE,rock_arch,UR,1.3795,NR,3.0000
354,9,162,215.1445,-203.1425,WI,4,3,HAM,sauna,UR,1.4283,NR,3.0000
355,9,163,227.2125,-215.2114,WI,2,2,BIBLE,cockpit,R,2.4409,NR,3.0000
356,9,164,239.2789,-227.2773,WI,4,4,BATON,courtroom,UR,1.9352,NR,3.0000
357,9,165,251.3459,-239.3436,WO,2,2,BROOM,ice_floe,UR,2.0636,NR,3.0000
358,9,166,263.4135,-251.4119,WI,2,2,SPATULA,hotel_room,UR,2.0905,NR,3.0000
359,9,167,275.4801,-263.4784,WO,4,4,SEAL,playground,R,1.2435,NR,3.0000
360,9,168,287.5478,-275.5462,WO,4,4,OYSTER,picnic_area,R,1.4089,NR,3.0000
361,9,169,299.6150,-287.6140,WI,4,4,ROPE,auditorium,R,1.4282,NR,3.0000
362,9,170,311.6817,-299.6806,WI,4,4,CANNON,cloister,R,1.3065,NR,3.0000
363,9,171,323.7486,-311.7471,WO,2,2,SOCK,pavilion,R,1.4253,NR,3.0000
364,9,172,335.8158,-323.8138,WO,2,2,EAGLE,electrical_substation,UR,2.0861,NR,3.0000
365,9,173,347.8838,-335.8821,WO,4,4,LAMB,moat,R,1.3593,NR,3.0000
366,9,174,359.9509,-347.9493,WI,4,3,SHARK,subway_interior,R,1.3146,NR,3.0000
367,9,175,372.0181,-360.0158,WI,2,2,SHOVEL,stable,UR,2.3339,NR,3.0000
368,9,176,384.0863,-372.0847,WI,4,4,TIGER,television_studio,UR,2.3994,NR,3.0000
369,9,177,396.1532,-384.1517,WO,4,3,TABLE,plaza,R,1.4639,NR,3.0000
370,9,178,408.2208,-396.2199,WI,4,4,TURTLE,florist_shop,R,2.4420,NR,3.0000
371,9,179,420.2871,-408.2859,WO,4,4,TABLE,plaza,R,1.3614,NR,3.0000
372,9,180,432.3537,-420.3527,WI,4,4,SHARK,subway_interior,R,1.4990,NR,3.0000
373,9,181,444.4202,-432.4195,WO,2,2,STAPLER,desert,R,1.4838,NR,3.0000
374,9,182,456.4865,-444.4858,WO,4,3,NEST,corral,R,1.7702,NR,3.0000
375,9,183,468.5535,-456.5521,WI,4,4,HAM,sauna,UR,1.9679,NR,3.0000
376,9,184,480.6203,-468.6187,WO,4,4,OTTER,mountain_snowy,R,2.1573,NR,3.0000
377,9,185,492.6875,-480.6866,WO,4,4,NEST,corral,R,1.0735,NR,3.0000
378,9,186,504.7546,-492.7538,WI,2,2,SOUP,bowling_alley,UR,1.2585,NR,3.0000
379,10,163,10.0024,1.9999,WO,4,3,SCROLL,hill,R,1.9276,NR,3.0000
380,10,164,22.0717,-10.0704,WI,2,2,BUTTER,bedroom,UR,1.8852,NR,3.0000
381,10,165,34.1393,-22.1375,WO,2,2,SWORD,cottage_garden,UR,1.8456,NR,3.0000
382,10,166,46.2062,-34.2044,WO,4,3,STOOL,corn_field,R,1.7343,NR,3.0000
383,10,167,58.2736,-46.2724,WI,2,2,DESK,ballroom,R,2.1952,NR,3.0000
384,10,168,70.3396,-58.3383,WO,4,3,ASPIRIN,botanical_garden,R,1.7703,NR,3.0000
385,10,169,82.4062,-70.4042,WO,4,3,PIGEON,athletic_field,R,1.9578,NR,3.0000
386,10,170,94.4729,-82.4721,WI,4,3,SHRIMP,bus_interior,UR,1.6486,NR,3.0000
387,10,171,106.5384,-94.5367,WO,4,3,TRIBE,beach,R,1.9415,NR,3.0000
388,10,172,118.6063,-106.6048,WI,4,3,BELL,restaurant_kitchen,UR,1.4646,NR,3.0000
389,10,173,130.6726,-118.6705,WO,4,3,CHOCOLATE,observatory,R,2.5226,NR,3.0000
390,10,174,142.7403,-130.7386,WO,4,4,CHOCOLATE,observatory,R,0.9211,NR,3.0000
391,10,175,154.8072,-142.8063,WI,4,3,ELEPHANT,parlor,R,1.9294,NR,3.0000
392,10,176,166.8730,-154.8722,WO,2,2,CHEESE,raceway,UR,1.3952,NR,3.0000
393,10,177,178.9393,-166.9385,WO,4,4,SCROLL,hill,R,2.3297,NR,3.0000
394,10,178,191.0051,-179.0040,WO,4,3,VIOLIN,fire_escape,R,2.0887,NR,3.0000
395,10,179,203.0717,-191.0705,WI,2,2,QUARTER,pulpit,NR,999.0000,NR,3.0000
396,10,180,215.1381,-203.1373,WO,2,2,EYE,ruin,R,2.4034,NR,3.0000
397,10,181,227.2038,-215.2024,WI,4,3,ARMOR,bistro,UR,1.7484,NR,3.0000
398,10,182,239.2705,-227.2697,WO,4,4,TRIBE,beach,R,1.3502,NR,3.0000
399,10,183,251.3365,-239.3352,WI,2,2,ROCKER,cathedral,R,1.3161,NR,3.0000
400,10,184,263.4035,-251.4015,WO,2,2,DRUM,kasbah,UR,2.0300,NR,3.0000
401,10,185,275.4704,-263.4683,WO,4,4,ASPIRIN,botanical_garden,R,1.2929,NR,3.0000
402,10,186,287.5374,-275.5345,WO,4,4,VIOLIN,fire_escape,R,1.2552,NR,3.0000
403,10,187,299.6052,-287.6035,WI,4,3,CEREAL,supermarket,R,1.2442,NR,3.0000
404,10,188,311.6720,-299.6701,WI,4,4,CEREAL,supermarket,R,0.9718,NR,3.0000
405,10,189,323.7400,-311.7381,WI,4,4,ELEPHANT,parlor,R,1.5119,NR,3.0000
406,10,190,335.8068,-323.8057,WO,2,2,PENNY,labyrinth,UR,2.0082,NR,3.0000
407,10,191,347.8732,-335.8716,WI,4,3,SOAP,limousine_interior,R,1.0753,NR,3.0000
408,10,192,359.9402,-347.9386,WO,4,4,STOOL,corn_field,R,1.1220,NR,3.0000
409,10,193,372.0069,-360.0050,WI,4,3,CANE,garage,R,2.0457,NR,3.0000
410,10,194,384.0746,-372.0725,WI,2,2,MAP,volleyball_court,UR,2.8533,NR,3.0000
411,10,195,396.1418,-384.1396,WI,2,2,MITTEN,galley,R,1.4982,NR,3.0000
412,10,196,408.2092,-396.2082,WO,2,2,YACHT,bayou,R,1.2019,NR,3.0000
413,10,197,420.2760,-408.2750,WI,2,2,HARPOON,archive,R,1.2432,NR,3.0000
414,10,198,432.3424,-420.3405,WI,4,4,BELL,restaurant_kitchen,UR,1.2600,NR,3.0000
415,10,199,444.4101,-432.4088,WO,4,4,PIGEON,athletic_field,R,1.2547,NR,3.0000
416,10,200,456.4768,-444.4754,WI,4,4,SOAP,limousine_interior,R,1.4348,NR,3.0000
417,10,201,468.5434,-456.5423,WI,4,4,CANE,garage,UR,2.5740,NR,3.0000
418,10,202,480.6098,-468.6077,WO,2,2,RIFLE,baseball_field,R,2.1411,NR,3.0000
419,10,203,492.6770,-480.6751,WI,4,4,ARMOR,bistro,UR,1.3526,NR,3.0000
420,10,204,504.7450,-492.7439,WI,4,4,SHRIMP,bus_interior,R,1.6825,NR,3.0000
421,11,181,10.0041,1.9980,WI,4,3,ACCORDIAN,biology_laboratory,UR,1.4789,NR,3.0000
422,11,182,22.0788,-10.0768,WI,4,3,TROLLEY,music_studio,UR,1.5951,NR,3.0000
423,11,183,34.1512,-22.1498,WI,4,3,SOOT,orchestra_pit,R,1.3566,NR,3.0000
424,11,184,46.2226,-34.2200,WO,4,3,NET,aqueduct,R,1.8091,NR,3.0000
425,11,185,58.2951,-46.2944,WO,4,3,LIGHTNING,watering_hole,R,1.5738,NR,3.0000
426,11,186,70.3662,-58.3654,WO,4,3,ORCHID,bamboo_forest,R,1.1755,NR,3.0000
427,11,187,82.4371,-70.4359,WI,2,2,BROWNIE,art_gallery,UR,2.2513,NR,3.0000
428,11,188,94.5091,-82.5071,WO,2,2,CLARINET,herb_garden,UR,1.8033,NR,3.0000
429,11,189,106.5810,-94.5800,WO,4,3,HONEY,hangar,R,1.8054,NR,3.0000
430,11,190,118.6522,-106.6501,WO,4,4,LIGHTNING,watering_hole,R,1.2111,NR,3.0000
431,11,191,130.7243,-118.7233,WI,4,3,BRAIN,aquarium,R,2.2400,NR,3.0000
432,11,192,142.7953,-130.7933,WO,4,3,BONE,house,R,1.3188,NR,3.0000
433,11,193,154.8676,-142.8653,WO,2,2,STORK,mosque,R,2.7001,NR,3.0000
434,11,194,166.9400,-154.9390,WO,4,3,BEAVER,lift_bridge,R,1.6231,NR,3.0000
435,11,195,179.0110,-167.0095,WI,2,2,DAMSEL,natural_history_museum,UR,2.6306,NR,3.0000
436,11,196,191.0834,-179.0815,WI,4,3,RUDDER,amusement_arcade,R,1.3628,NR,3.0000
437,11,197,203.1553,-191.1532,WO,2,2,BOOT,lock_chamber,UR,1.8558,NR,3.0000
438,11,198,215.2281,-203.2270,WI,4,3,SARDINE,butchers_shop,R,1.2869,NR,3.0000
439,11,199,227.2996,-215.2987,WO,4,4,NET,aqueduct,R,1.3933,NR,3.0000
440,11,200,239.3705,-227.3691,WI,4,4,ACCORDIAN,biology_laboratory,UR,1.4226,NR,3.0000
441,11,201,251.4421,-239.4399,WO,4,4,ORCHID,bamboo_forest,R,1.1531,NR,3.0000
442,11,202,263.5143,-251.5124,WI,2,2,POWDER,airplane_cabin,R,1.4868,NR,3.0000
443,11,203,275.5862,-263.5855,WI,2,2,KALE,parking_garage,UR,1.6824,NR,3.0000
444,11,204,287.6573,-275.6563,WO,4,4,BONE,house,R,1.1235,NR,3.0000
445,11,205,299.7284,-287.7264,WO,2,2,BABY,manufactured_home,R,2.6389,NR,3.0000
446,11,206,311.8006,-299.7989,WO,4,3,CROWN,boat_deck,UR,1.6036,NR,3.0000
447,11,207,323.8724,-311.8706,WI,4,3,TOAST,burial_chamber,R,1.8022,NR,3.0000
448,11,208,335.9449,-323.9437,WI,4,4,TOAST,burial_chamber,R,1.8032,NR,3.0000
449,11,209,348.0165,-336.0151,WI,2,2,FOX,gymnasium,R,1.4003,NR,3.0000
450,11,210,360.0882,-348.0860,WO,2,2,FENCE,hayfield,R,1.4865,NR,3.0000
451,11,211,372.1609,-360.1600,WO,4,4,CROWN,boat_deck,UR,1.4471,NR,3.0000
452,11,212,384.2320,-372.2308,WI,4,4,BRAIN,aquarium,R,1.5607,NR,3.0000
453,11,213,396.3037,-384.3016,WI,4,4,SARDINE,butchers_shop,R,1.5321,NR,3.0000
454,11,214,408.3758,-396.3742,WO,2,2,BOAT,lighthouse,R,1.2562,NR,3.0000
455,11,215,420.4481,-408.4465,WO,4,4,HONEY,hangar,R,1.3275,NR,3.0000
456,11,216,432.5199,-420.5178,WO,4,4,BEAVER,lift_bridge,R,1.4623,NR,3.0000
457,11,217,444.5922,-432.5896,WI,4,4,TROLLEY,music_studio,UR,2.1638,NR,3.0000
458,11,218,456.6656,-444.6640,WI,4,4,RUDDER,amusement_arcade,R,1.5681,NR,3.0000
459,11,219,468.7377,-456.7356,WO,2,2,VODKA,excavation,R,1.6381,NR,3.0000
460,11,220,480.8106,-468.8099,WI,4,4,SOOT,orchestra_pit,R,1.2471,NR,3.0000
461,11,221,492.8815,-480.8806,WI,2,2,TOWEL,art_studio,UR,2.4852,NR,3.0000
462,11,222,504.9527,-492.9514,WI,2,2,DIAMOND,nursery,R,1.5248,NR,3.0000
463,12,199,10.0034,2.0000,WO,2,2,PEARL,hotel,R,1.2386,NR,3.0000
464,12,200,22.0726,-10.0717,WI,4,3,VELVET,riding_arena,R,1.5557,NR,3.0000
465,12,201,34.1358,-22.1342,WI,4,3,CRAB,assembly_line,R,1.6714,NR,3.0000
466,12,202,46.2002,-34.1980,WO,4,3,DOVE,castle,R,1.9725,NR,3.0000
467,12,203,58.2648,-46.2631,WO,4,3,MEDAL,crosswalk,UR,1.4685,NR,3.0000
468,12,204,70.3289,-58.3265,WI,2,2,CRADLE,candy_store,UR,2.1801,NR,3.0000
469,12,205,82.3934,-70.3917,WI,4,3,SPONGE,cubicle,R,1.3331,NR,3.0000
470,12,206,94.4575,-82.4558,WO,2,2,TULIP,iceberg,UR,2.4076,NR,3.0000
471,12,207,106.5224,-94.5199,WI,2,2,HOOK,fastfood_restaurant,R,1.4402,NR,3.0000
472,12,208,118.5875,-106.5857,WO,2,2,GOAT,basketball_court,R,1.3406,NR,3.8633
473,12,209,130.6518,-118.6500,WO,2,2,SCAB,cliff,R,2.4339,NR,3.0000
474,12,210,142.7166,-130.7153,WO,4,3,WALRUS,bullring,R,1.4626,NR,3.0000
475,12,211,154.7800,-142.7792,WI,4,3,SAXOPHONE,movie_theater,R,1.3336,NR,3.0000
476,12,212,166.8439,-154.8421,WI,4,3,KILT,toyshop,R,1.4647,NR,3.0000
477,12,213,178.9083,-166.9068,WO,4,4,WALRUS,bullring,R,1.0197,NR,3.0000
478,12,214,190.9722,-178.9713,WI,4,4,SAXOPHONE,movie_theater,R,1.2677,NR,3.0000
479,12,215,203.0364,-191.0346,WO,4,3,MUSSEL,lido_deck,R,1.3258,NR,3.0000
480,12,216,215.1007,-203.0998,WO,2,2,NEEDLE,pasture,R,1.3090,NR,3.0000
481,12,217,227.1647,-215.1624,WI,4,3,LIME,locker_room,R,1.1054,NR,3.0000
482,12,218,239.2294,-227.2272,WI,4,4,VELVET,riding_arena,R,1.2301,NR,3.0000
483,12,219,251.2943,-239.2924,WI,4,3,CAMERA,theater,R,1.0719,NR,3.0000
484,12,220,263.3592,-251.3574,WO,4,4,MEDAL,crosswalk,UR,1.0802,NR,3.0000
485,12,221,275.4236,-263.4222,WI,4,4,SPONGE,cubicle,R,1.1159,NR,3.0000
486,12,222,287.4883,-275.4865,WI,2,2,SHELL,ice_cream_parlor,UR,1.5744,NR,3.0000
487,12,223,299.5526,-287.5509,WO,4,3,TORNADO,driving_range,R,1.1686,NR,3.0000
488,12,224,311.6170,-299.6162,WO,4,3,SALAD,dock,R,2.1421,NR,3.0000
489,12,225,323.6813,-311.6804,WI,4,4,CAMERA,theater,R,1.0307,NR,3.0000
490,12,226,335.7450,-323.7440,WO,4,3,ROSE,canyon,R,1.0948,NR,3.0000
491,12,227,347.8090,-335.8071,WO,2,2,NAPKIN,dam,R,2.3578,NR,3.0000
492,12,228,359.8735,-347.8727,WI,2,2,ACROBAT,catacomb,R,1.5978,NR,3.0000
493,12,229,371.9371,-359.9360,WO,4,4,SALAD,dock,R,1.0615,NR,3.0000
494,12,230,384.0006,-371.9993,WO,2,2,SHOWER,boathouse,R,1.3839,NR,3.0000
495,12,231,396.0646,-384.0628,WO,4,4,ROSE,canyon,R,1.8963,NR,3.0000
496,12,232,408.1294,-396.1283,WI,4,4,LIME,locker_room,R,1.2654,NR,3.0000
497,12,233,420.1933,-408.1922,WO,4,4,MUSSEL,lido_deck,R,0.9155,NR,3.0000
498,12,234,432.2572,-420.2564,WO,4,4,DOVE,castle,R,1.5499,NR,3.0000
499,12,235,444.3211,-432.3200,WI,4,4,CRAB,assembly_line,R,1.8466,NR,3.0000
500,12,236,456.3849,-444.3828,WI,2,2,MONKEY,stage,UR,2.2544,NR,3.0000
501,12,237,468.4505,-456.4492,WI,2,2,BOWL,kitchenette,R,2.6508,NR,3.0000
502,12,238,480.5145,-468.5129,WO,4,4,TORNADO,driving_range,R,2.0150,NR,3.0000
503,12,239,492.5787,-480.5767,WI,2,2,VINE,attic,R,2.7067,NR,3.0000
504,12,240,504.6433,-492.6411,WI,4,4,KILT,toyshop,R,1.2157,NR,3.0000
