index,run,trial,onset,duration,cond,shockCond,shockTrial,target,associate,resp,acc,accSpec,respRT,ISIresp,ISIacc,ISIaccSpec,ISIrespRT
1,1,1,12.0266,9.4246,F,threat,0,QUILT,foil,F,CR,CR,1.6693,NR,NR,NR,999.0000
2,1,2,21.4802,9.1235,TI_2,threat,0,MAGICIAN,baggage_claim,TO,SM,SMI_Lo,1.9524,NR,NR,NR,999.0000
3,1,3,30.6409,11.9242,TI_2,threat,1,BANANA,jewelry_shop,NR,NR,NR,999.0000,NR,NR,NR,999.0000
4,1,4,42.5929,11.6821,TI_4,threat,0,SYRUP,kennel,TI,H,HI_Lo,2.5060,NR,NR,NR,999.0000
5,1,5,54.3039,9.3918,TO_4,threat,0,SUBMARINE,rope_bridge,TI,SM,SMO_Lo,1.4254,NR,NR,NR,999.0000
6,1,6,63.7232,9.1037,F,threat,0,RABBIT,foil,TO,FA,FAO_Hi,1.3923,NR,NR,NR,999.0000
7,1,7,72.8546,10.3743,TI_2,threat,0,GLOVE,badminton_court,F,M,MI,1.4903,NR,NR,NR,999.0000
8,1,8,83.2573,9.1165,F,threat,0,BANDAGE,foil,TI,FA,FAI_Lo,3.5608,NR,NR,NR,999.0000
9,1,9,92.4011,9.7658,TO_4,threat,0,WHIP,ocean,TO,H,HO_Lo,2.4356,NR,NR,NR,999.0000
10,1,10,102.1945,9.9142,F,threat,0,PIANO,foil,TO,FA,FAO_Lo,1.5654,NR,NR,NR,999.0000
11,1,11,112.1369,9.2551,TO_4,threat,0,PANTS,outhouse,TO,H,HO_Lo,2.0883,NR,NR,NR,999.0000
12,1,12,121.4203,9.0595,F,threat,0,HIGHWAY,foil,F,CR,CR,1.2455,NR,NR,NR,999.0000
13,1,13,130.5080,9.1494,TI_2,threat,0,SCISSORS,kindergarden_classroom,TO,SM,SMI_Lo,2.6606,NR,NR,NR,999.0000
14,1,14,139.6856,10.4712,TO_4,threat,0,EMPEROR,ice_shelf,TO,H,HO_Hi,1.9733,NR,NR,NR,999.0000
15,1,15,150.1850,9.6873,F,threat,0,DUST,foil,TI,FA,FAI_Lo,1.7572,NR,NR,NR,999.0000
16,1,16,159.9009,9.7542,TI_4,threat,0,MUSTARD,closet,TI,H,HI_Hi,1.9970,NR,NR,NR,999.0000
17,1,17,169.6833,10.7110,TO_2,threat,0,FAN,greenhouse,TO,H,HO_Lo,2.0032,NR,NR,NR,999.0000
18,1,18,180.4234,11.2679,TO_4,threat,0,PUMPKIN,forest_path,TO,H,HO_Hi,2.0190,NR,NR,NR,999.0000
19,1,19,191.7202,9.8086,TI_4,threat,0,OATMEAL,basement,TI,H,HI_Hi,2.1654,TI,H,HI_Hi,1.0658
20,1,20,201.5576,9.8954,F,threat,0,DAISY,foil,TO,FA,FAO_Lo,1.8532,TI,FA,FAI_Hi,5.0139
21,1,21,211.4807,12.3318,TI_4,threat,0,MILK,lobby,F,M,MI,2.5960,TI,H,HI_Lo,1.9562
22,1,22,223.8411,11.3378,TO_2,threat,0,FORK,power_plant,TO,H,HO_Lo,2.1037,TI,SM,SMO_Lo,5.4696
23,1,23,235.2077,9.6890,F,threat,0,CANDY,foil,NR,NR,NR,999.0000,NR,NR,NR,999.0000
24,1,24,244.9252,9.3775,TI_4,threat,0,TRAY,elevator,TI,H,HI_Hi,1.6864,TI,H,HI_Hi,0.9022
25,1,25,254.3312,9.1792,TO_2,threat,0,LETTUCE,boardwalk,TO,H,HO_Lo,2.2168,NR,NR,NR,999.0000
26,1,26,263.5390,9.7558,TI_2,threat,0,ICICLE,chicken_coop,TO,SM,SMI_Lo,1.9438,NR,NR,NR,999.0000
27,1,27,273.3228,10.1983,F,threat,0,FIDDLE,foil,TI,FA,FAI_Lo,3.2700,TI,FA,FAI_Hi,3.8328
28,1,28,283.5491,9.9228,F,threat,0,HATCHET,foil,TO,FA,FAO_Lo,1.7263,NR,NR,NR,999.0000
29,1,29,293.5004,10.0980,TI_4,threat,0,CLOAK,ice_skating_rink,TI,H,HI_Hi,1.5727,NR,NR,NR,999.0000
30,1,30,303.6264,11.1875,TI_2,threat,0,LANTERN,office,TI,H,HI_Hi,3.5004,NR,NR,NR,999.0000
31,1,31,314.8420,9.2759,F,threat,0,UMBRELLA,foil,TO,FA,FAO_Lo,2.2682,NR,NR,NR,999.0000
32,1,32,324.1465,10.5703,F,threat,0,FLASK,foil,F,CR,CR,3.7756,F,CR,CR,4.8055
33,1,33,334.7448,9.9909,TO_4,threat,0,BALLOON,market,TO,H,HO_Hi,2.3426,NR,NR,NR,999.0000
34,1,34,344.7638,10.1092,TO_2,threat,0,ROCK,crevasse,TO,H,HO_Lo,2.3711,TI,SM,SMO_Lo,1.1108
35,1,35,354.9006,11.9448,TI_4,threat,0,OLIVE,auto_factory,TI,H,HI_Lo,2.5095,TI,H,HI_Lo,5.1579
36,1,36,366.8731,11.6222,TO_2,threat,0,MUFFIN,mountain,TO,H,HO_Hi,1.7278,NR,NR,NR,999.0000
37,1,37,378.5243,12.3255,TO_2,threat,0,NIGHTGOWN,general_store,TO,H,HO_Lo,3.7947,NR,NR,NR,999.0000
38,1,38,390.8777,10.9960,TO_4,threat,0,SNAIL,gazebo,TO,H,HO_Hi,2.2604,TI,SM,SMO_Lo,2.0000
39,1,39,401.9014,10.5555,TO_2,threat,0,GEESE,landing_deck,TO,H,HO_Lo,2.3217,NR,NR,NR,999.0000
40,1,40,412.4856,10.6545,F,threat,0,CANDLE,foil,TO,FA,FAO_Lo,3.3724,NR,NR,NR,999.0000
41,1,41,423.1682,9.5368,TI_2,threat,0,POSTER,beauty_salon,TI,H,HI_Lo,2.4491,TI,H,HI_Lo,0.6197
42,1,42,432.7334,9.6348,F,threat,0,SNOW,foil,TO,FA,FAO_Lo,2.0639,TI,FA,FAI_Lo,1.8690
43,2,1,12.0067,9.0829,F,safe,0,PEDAL,foil,TI,FA,FAI_Lo,2.8454,NR,NR,NR,999.0000
44,2,2,21.1207,10.1049,TO_4,safe,0,MEDICINE,rice_paddy,TO,H,HO_Lo,2.0831,NR,NR,NR,999.0000
45,2,3,31.2555,10.5694,TI_4,safe,0,HAMMER,library,TI,H,HI_Lo,2.1910,NR,NR,NR,999.0000
46,2,4,41.8547,9.9306,TI_4,safe,0,NOODLE,athletic_field,TO,SM,SMI_Hi,2.6571,NR,NR,NR,999.0000
47,2,5,51.8147,9.8969,F,safe,0,LAMP,foil,TI,FA,FAI_Lo,2.8986,NR,NR,NR,999.0000
48,2,6,61.7414,9.3748,TI_2,safe,0,TEETH,optician,F,M,MI,2.1751,NR,NR,NR,999.0000
49,2,7,71.1464,9.1001,F,safe,0,BARREL,foil,TO,FA,FAO_Lo,2.1782,NR,NR,NR,999.0000
50,2,8,80.2764,9.1771,F,safe,0,POTATO,foil,F,CR,CR,2.4711,NR,NR,NR,999.0000
51,2,9,89.4830,10.5537,F,safe,0,FROG,foil,TI,FA,FAI_Lo,2.6407,NR,NR,NR,999.0000
52,2,10,100.0667,10.4694,TI_2,safe,0,QUILL,brewery,TI,H,HI_Hi,2.1430,NR,NR,NR,999.0000
53,2,11,110.5659,9.7617,TO_4,safe,0,SEAWEED,river,TO,H,HO_Hi,2.7269,NR,NR,NR,999.0000
54,2,12,120.3570,11.9427,F,safe,0,ANT,foil,F,CR,CR,1.7347,NR,NR,NR,999.0000
55,2,13,132.3308,9.9874,TI_4,safe,0,DETECTIVE,operating_room,TI,H,HI_Hi,2.2599,NR,NR,NR,999.0000
56,2,14,142.3480,10.9967,TI_2,safe,0,APPLE,reception,TI,H,HI_Lo,2.9097,NR,NR,NR,999.0000
57,2,15,153.3749,9.1250,F,safe,0,EASEL,foil,F,CR,CR,1.9509,NR,NR,NR,999.0000
58,2,16,162.5300,11.1846,TO_2,safe,0,ROSARY,patio,TO,H,HO_Lo,2.4005,NR,NR,NR,999.0000
59,2,17,173.7446,11.3358,TO_2,safe,0,TROPHY,fountain,TO,H,HO_Hi,3.0316,NR,NR,NR,999.0000
60,2,18,185.1110,12.3298,TO_2,safe,0,WAND,igloo,TO,H,HO_Lo,2.2673,NR,NR,NR,999.0000
61,2,19,197.4711,11.6788,TO_4,safe,0,TOBACCO,oilrig,TO,H,HO_Hi,2.7665,NR,NR,NR,999.0000
62,2,20,209.1799,9.4196,F,safe,0,CAGE,foil,TI,FA,FAI_Lo,2.5664,NR,NR,NR,999.0000
63,2,21,218.6301,9.8052,TI_2,safe,0,SCOTCH,music_store,TI,H,HI_Lo,2.8011,NR,NR,NR,999.0000
64,2,22,228.4653,9.9132,TI_4,safe,0,STOMACH,lecture_room,TI,H,HI_Lo,2.8527,NR,NR,NR,999.0000
65,2,23,238.4088,10.1972,TO_2,safe,0,PYTHON,carrousel,F,M,MI,2.4988,NR,NR,NR,999.0000
66,2,24,248.6367,10.3697,TO_2,safe,0,NECKLACE,office_building,TO,H,HO_Lo,2.0431,NR,NR,NR,999.0000
67,2,25,259.0363,10.7109,TI_4,safe,0,MOON,shopping_mall,TI,H,HI_Hi,2.5847,NR,NR,NR,999.0000
68,2,26,269.7772,11.6191,F,safe,0,DRUG,foil,TI,FA,FAI_Lo,2.4370,NR,NR,NR,999.0000
69,2,27,281.4263,11.2674,TI_2,safe,0,SAIL,engine_room,TI,H,HI_Lo,2.5136,NR,NR,NR,999.0000
70,2,28,292.7239,9.2523,TO_4,safe,0,BUCKET,amphitheater,TO,H,HO_Hi,2.3897,NR,NR,NR,999.0000
71,2,29,302.0059,9.6893,TI_2,safe,0,RICE,bookstore,TI,H,HI_Hi,1.8305,NR,NR,NR,999.0000
72,2,30,311.7259,9.7539,TI_4,safe,0,OMELET,jail_cell,TI,H,HI_Hi,1.6581,NR,NR,NR,999.0000
73,2,31,321.5094,9.6319,TO_4,safe,0,WINE,mausoleum,TO,H,HO_Lo,2.6152,NR,NR,NR,999.0000
74,2,32,331.1709,9.9225,F,safe,0,DOLL,foil,TI,FA,FAI_Lo,2.4966,NR,NR,NR,999.0000
75,2,33,341.1237,12.3246,F,safe,0,ANCHOR,foil,TI,FA,FAI_Lo,2.6916,NR,NR,NR,999.0000
76,2,34,353.4783,9.3891,TI_4,safe,0,WRENCH,hospital_room,TI,H,HI_Hi,1.3673,NR,NR,NR,999.0000
77,2,35,362.8974,9.5364,TO_4,safe,0,BENCH,putting_green,TO,H,HO_Hi,2.7378,NR,NR,NR,999.0000
78,2,36,372.4640,9.6853,TI_2,safe,0,MOTH,bakery,TI,H,HI_Lo,3.1823,NR,NR,NR,999.0000
79,2,37,382.1796,9.1473,TO_2,safe,0,SCOOTER,garbage_dump,TI,SM,SMO_Lo,2.9072,NR,NR,NR,999.0000
80,2,38,391.3571,9.1149,TO_4,safe,0,ARROW,highway,TI,SM,SMO_Lo,2.8267,NR,NR,NR,999.0000
81,2,39,400.5034,10.0929,F,safe,0,DOUGHNUT,foil,TO,FA,FAO_Lo,2.2843,NR,NR,NR,999.0000
82,2,40,410.6262,9.7542,TO_2,safe,0,PIE,fishpond,TO,H,HO_Lo,2.4212,NR,NR,NR,999.0000
83,2,41,420.4111,10.6520,F,safe,0,SLIPPER,foil,TI,FA,FAI_Lo,1.9292,NR,NR,NR,999.0000
84,2,42,431.0939,9.2737,F,safe,0,HOSE,foil,TI,FA,FAI_Lo,2.9290,NR,NR,NR,999.0000
85,3,1,12.0066,11.7047,TO_4,threat,0,NEST,corral,TO,H,HO_Hi,2.6525,NR,NR,NR,999.0000
86,3,2,23.7444,9.1130,TO_2,threat,0,STAPLER,desert,TO,H,HO_Hi,1.5873,NR,NR,NR,999.0000
87,3,3,32.8888,10.3701,TO_4,threat,0,SEAL,playground,TO,H,HO_Hi,1.8294,NR,NR,NR,999.0000
88,3,4,43.2907,9.6848,F,threat,0,SHEEP,foil,F,CR,CR,2.6253,NR,NR,NR,999.0000
89,3,5,53.0080,10.0913,TI_2,threat,0,TYPEWRITER,drugstore,TI,H,HI_Lo,2.4773,NR,NR,NR,999.0000
90,3,6,63.1303,11.3355,F,threat,0,MOUSE,foil,TO,FA,FAO_Lo,1.7653,NR,NR,NR,999.0000
91,3,7,74.4967,9.9883,TO_4,threat,0,RAKE,rock_arch,TO,H,HO_Hi,2.9345,NR,NR,NR,999.0000
92,3,8,84.5168,10.5674,TO_4,threat,0,TABLE,plaza,TI,SM,SMO_Lo,2.6961,NR,NR,NR,999.0000
93,3,9,95.1152,9.5344,F,threat,0,CANARY,foil,TO,FA,FAO_Lo,2.8017,NR,NR,NR,999.0000
94,3,10,104.6809,12.3275,TO_4,threat,0,OYSTER,picnic_area,TO,H,HO_Hi,2.7125,NR,NR,NR,999.0000
95,3,11,117.0395,11.9396,TI_2,threat,0,SHOVEL,stable,TO,SM,SMI_Lo,2.7082,NR,NR,NR,999.0000
96,3,12,129.0102,11.6194,TI_4,threat,0,BATON,courtroom,TI,H,HI_Hi,2.0100,NR,NR,NR,999.0000
97,3,13,140.6620,10.4693,F,threat,0,ORNAMENT,foil,F,CR,CR,1.7959,NR,NR,NR,999.0000
98,3,14,151.1624,9.0563,F,threat,0,BRACELET,foil,TO,FA,FAO_Lo,3.0558,NR,NR,NR,999.0000
99,3,15,160.2494,9.2527,TI_2,threat,0,BIBLE,cockpit,TO,SM,SMI_Hi,2.6904,NR,NR,NR,999.0000
100,3,16,169.5336,9.0989,F,threat,0,RASH,foil,TO,FA,FAO_Lo,2.9924,NR,NR,NR,999.0000
101,3,17,178.6634,11.2667,TI_4,threat,0,HAM,sauna,TI,H,HI_Hi,2.5283,NR,NR,NR,999.0000
102,3,18,189.9613,10.7075,F,threat,0,WITCH,foil,F,CR,CR,1.7341,NR,NR,NR,999.0000
103,3,19,200.7006,9.8056,TI_2,threat,0,ENVELOPE,cafeteria,TO,SM,SMI_Lo,2.7706,NR,NR,NR,999.0000
104,3,20,210.5374,9.1224,F,threat,0,CHERRY,foil,TI,FA,FAI_Lo,2.6902,NR,NR,NR,999.0000
105,3,21,219.6910,10.9954,TI_2,threat,0,SPATULA,hotel_room,TI,H,HI_Hi,1.2585,NR,NR,NR,999.0000
106,3,22,230.7188,9.2722,TO_2,threat,0,TELEGRAPH,heliport,TI,SM,SMO_Lo,2.9063,NR,NR,NR,999.0000
107,3,23,240.0219,10.6493,F,threat,0,LION,foil,TO,FA,FAO_Lo,2.8134,NR,NR,NR,999.0000
108,3,24,250.7024,10.5526,TO_4,threat,0,LAMB,moat,TI,SM,SMO_Hi,3.1351,NR,NR,NR,999.0000
109,3,25,261.2867,9.6314,TI_2,threat,0,PASTE,playroom,TI,H,HI_Hi,1.6821,NR,NR,NR,999.0000
110,3,26,270.9495,9.7524,F,threat,0,BLANKET,foil,TO,FA,FAO_Lo,2.8371,NR,NR,NR,999.0000
111,3,27,280.7332,14.3224,TI_4,threat,1,SHARK,subway_interior,TI,H,HI_Hi,2.6877,NR,NR,NR,999.0000
112,3,28,295.2130,9.2906,TI_2,threat,0,SOUP,bowling_alley,TI,H,HI_Lo,2.1773,NR,NR,NR,999.0000
113,3,29,304.5383,9.1733,TO_2,threat,0,EAGLE,electrical_substation,TI,SM,SMO_Lo,2.6488,NR,NR,NR,999.0000
114,3,30,313.7461,10.1016,TO_2,threat,0,SOCK,pavilion,NR,NR,NR,999.0000,TO,H,HO_Hi,0.1045
115,3,31,323.8829,9.1421,TO_2,threat,0,SCREWDRIVER,badlands,TO,H,HO_Hi,2.3141,NR,NR,NR,999.0000
116,3,32,333.0591,9.9088,TO_4,threat,0,OTTER,mountain_snowy,TO,H,HO_Hi,1.4164,NR,NR,NR,999.0000
117,3,33,343.0024,9.7488,TI_4,threat,0,CANNON,cloister,TO,SM,SMI_Hi,2.2466,NR,NR,NR,999.0000
118,3,34,352.7863,10.1924,TO_2,threat,0,BROOM,ice_floe,TI,SM,SMO_Hi,3.1934,NR,NR,NR,999.0000
119,3,35,363.0131,9.8912,F,threat,0,TWEEZERS,foil,TI,FA,FAI_Hi,2.3889,NR,NR,NR,999.0000
120,3,36,372.9386,9.3864,TI_4,threat,0,ROPE,auditorium,TO,SM,SMI_Lo,2.7279,TI,H,HI_Hi,0.1171
121,3,37,382.3596,9.9252,TI_4,threat,0,TURTLE,florist_shop,TI,H,HI_Hi,2.4713,NR,NR,NR,999.0000
122,3,38,392.3192,9.7571,F,threat,0,GLOBE,foil,F,CR,CR,2.5161,NR,NR,NR,999.0000
123,3,39,402.1109,11.1826,F,threat,0,GARBAGE,foil,TO,FA,FAO_Lo,2.5855,NR,NR,NR,999.0000
124,3,40,413.3284,9.9168,TO_2,threat,0,KNIFE,barn,TI,SM,SMO_Lo,2.3826,NR,NR,NR,999.0000
125,3,41,423.2793,9.6852,F,threat,0,PLUG,foil,TO,FA,FAO_Lo,3.0931,NR,NR,NR,999.0000
126,3,42,432.9993,9.3689,TI_4,threat,0,TIGER,television_studio,TI,H,HI_Hi,2.4953,NR,NR,NR,999.0000
127,4,1,12.0061,9.3004,TI_2,safe,0,QUARTER,pulpit,TI,H,HI_Hi,2.1499,NR,NR,NR,999.0000
128,4,2,21.3399,10.1024,F,safe,0,FIRE,foil,TI,FA,FAI_Lo,2.5485,NR,NR,NR,999.0000
129,4,3,31.4749,9.3885,TO_4,safe,0,TRIBE,beach,TO,H,HO_Hi,2.2425,NR,NR,NR,999.0000
130,4,4,40.8955,10.0924,F,safe,0,OWL,foil,TI,FA,FAI_Lo,2.1928,NR,NR,NR,999.0000
131,4,5,51.0206,11.2641,F,safe,0,KEG,foil,TI,FA,FAI_Lo,1.9971,NR,NR,NR,999.0000
132,4,6,62.3173,11.1822,F,safe,0,WORM,foil,TO,FA,FAO_Lo,3.0707,NR,NR,NR,999.0000
133,4,7,73.5317,9.0565,TI_4,safe,0,SHRIMP,bus_interior,TI,H,HI_Hi,2.1476,NR,NR,NR,999.0000
134,4,8,82.6209,9.7518,TI_4,safe,0,SOAP,limousine_interior,TI,H,HI_Lo,2.2049,NR,NR,NR,999.0000
135,4,9,92.4053,9.9085,F,safe,0,RACQUET,foil,F,CR,CR,2.4650,NR,NR,NR,999.0000
136,4,10,102.3462,9.7606,F,safe,0,ORANGE,foil,TO,FA,FAO_Lo,2.7280,NR,NR,NR,999.0000
137,4,11,112.1397,10.6491,F,safe,0,MANURE,foil,TI,FA,FAI_Lo,3.1176,NR,NR,NR,999.0000
138,4,12,122.8213,10.5646,TO_2,safe,0,DRUM,kasbah,TI,SM,SMO_Lo,2.7361,NR,NR,NR,999.0000
139,4,13,133.4181,9.0988,TI_2,safe,0,MAP,volleyball_court,TO,SM,SMI_Lo,1.7251,NR,NR,NR,999.0000
140,4,14,142.5496,9.8924,TO_2,safe,0,EYE,ruin,F,M,MI,2.9208,NR,NR,NR,999.0000
141,4,15,152.4747,10.9933,TO_4,safe,0,STOOL,corn_field,TO,H,HO_Hi,1.8831,NR,NR,NR,999.0000
142,4,16,163.5004,9.9299,TI_2,safe,0,MITTEN,galley,TI,H,HI_Hi,3.4393,NR,NR,NR,999.0000
143,4,17,173.4632,9.1127,TO_2,safe,0,CHEESE,raceway,TO,H,HO_Hi,3.4143,NR,NR,NR,999.0000
144,4,18,182.6084,11.3328,F,safe,0,SANDAL,foil,TO,FA,FAO_Lo,2.1715,NR,NR,NR,999.0000
145,4,19,193.9733,9.3733,TI_4,safe,0,BELL,restaurant_kitchen,TI,H,HI_Hi,1.6867,NR,NR,NR,999.0000
146,4,20,203.3798,9.2491,TI_2,safe,0,HARPOON,archive,TI,H,HI_Hi,1.5158,NR,NR,NR,999.0000
147,4,21,212.6614,10.3688,F,safe,0,SQUIRREL,foil,TI,FA,FAI_Lo,2.9675,NR,NR,NR,999.0000
148,4,22,223.0628,10.7070,TI_4,safe,0,CEREAL,supermarket,TI,H,HI_Lo,2.5123,NR,NR,NR,999.0000
149,4,23,233.8023,9.1215,TO_2,safe,0,PENNY,labyrinth,TO,H,HO_Lo,2.7446,NR,NR,NR,999.0000
150,4,24,242.9560,9.1452,TO_2,safe,0,RIFLE,baseball_field,TO,H,HO_Hi,3.0421,NR,NR,NR,999.0000
151,4,25,252.1340,9.9197,TO_2,safe,0,SWORD,cottage_garden,TO,H,HO_Hi,2.3014,NR,NR,NR,999.0000
152,4,26,262.0868,10.1933,F,safe,0,WALLET,foil,TO,FA,FAO_Lo,2.0582,NR,NR,NR,999.0000
153,4,27,272.3128,9.5330,TI_4,safe,0,ELEPHANT,parlor,TI,H,HI_Lo,3.0616,NR,NR,NR,999.0000
154,4,28,281.8784,9.6307,TO_4,safe,0,ASPIRIN,botanical_garden,TO,H,HO_Hi,2.7608,NR,NR,NR,999.0000
155,4,29,291.5419,9.7524,F,safe,0,RING,foil,TO,FA,FAO_Lo,2.7543,NR,NR,NR,999.0000
156,4,30,301.3271,9.1745,TO_4,safe,0,SCROLL,hill,TO,H,HO_Hi,2.0988,NR,NR,NR,999.0000
157,4,31,310.5349,9.9848,TO_4,safe,0,CHOCOLATE,observatory,TO,H,HO_Hi,2.8811,NR,NR,NR,999.0000
158,4,32,320.5523,9.6842,TI_4,safe,0,CANE,garage,TI,H,HI_Hi,2.5546,NR,NR,NR,999.0000
159,4,33,330.2692,9.4149,TI_2,safe,0,BUTTER,bedroom,TO,SM,SMI_Lo,2.5485,NR,NR,NR,999.0000
160,4,34,339.7169,12.3266,TI_4,safe,0,ARMOR,bistro,TI,H,HI_Hi,2.5996,NR,NR,NR,999.0000
161,4,35,352.0769,11.6753,TO_2,safe,0,YACHT,bayou,TO,H,HO_Lo,2.6637,NR,NR,NR,999.0000
162,4,36,363.7852,10.4677,TI_2,safe,0,DESK,ballroom,TO,SM,SMI_Lo,2.4655,NR,NR,NR,999.0000
163,4,37,374.2867,11.9389,TO_4,safe,0,PIGEON,athletic_field,TO,H,HO_Hi,2.2700,NR,NR,NR,999.0000
164,4,38,386.2598,9.6837,TI_2,safe,0,ROCKER,cathedral,TI,H,HI_Lo,2.3217,NR,NR,NR,999.0000
165,4,39,395.9771,12.3214,F,safe,0,COFFEE,foil,TI,FA,FAI_Lo,3.1963,NR,NR,NR,999.0000
166,4,40,408.3324,9.8031,TO_4,safe,0,VIOLIN,fire_escape,TO,H,HO_Hi,2.9798,NR,NR,NR,999.0000
167,4,41,418.1698,11.6163,F,safe,0,BANDIT,foil,TO,FA,FAO_Lo,3.7729,NR,NR,NR,999.0000
168,4,42,429.8197,10.5479,F,safe,0,CHICKEN,foil,TO,FA,FAO_Lo,2.4699,NR,NR,NR,999.0000
169,5,1,12.0058,9.4440,TO_4,threat,0,BONE,house,TO,H,HO_Hi,2.3384,NR,NR,NR,999.0000
170,5,2,21.4853,9.6270,TI_2,threat,0,POWDER,airplane_cabin,TI,H,HI_Hi,3.0682,NR,NR,NR,999.0000
171,5,3,31.1471,9.8011,F,threat,0,JUGGLER,foil,TI,FA,FAI_Lo,2.7093,NR,NR,NR,999.0000
172,5,4,40.9827,11.6771,TO_2,threat,0,CLARINET,herb_garden,TO,H,HO_Hi,2.4235,NR,NR,NR,999.0000
173,5,5,52.6942,12.3200,F,threat,0,JACKET,foil,TO,FA,FAO_Lo,2.4814,NR,NR,NR,999.0000
174,5,6,65.0492,9.0960,TI_4,threat,0,TROLLEY,music_studio,TI,H,HI_Hi,2.8885,NR,NR,NR,999.0000
175,5,7,74.1797,9.6846,TI_2,threat,0,DIAMOND,nursery,TI,H,HI_Hi,2.0783,NR,NR,NR,999.0000
176,5,8,83.8988,9.0532,F,threat,0,PASSPORT,foil,TI,FA,FAI_Lo,2.2833,NR,NR,NR,999.0000
177,5,9,92.9870,11.9379,TO_2,threat,0,FENCE,hayfield,TO,H,HO_Hi,3.4111,NR,NR,NR,999.0000
178,5,10,104.9592,11.3311,TI_4,threat,0,BRAIN,aquarium,TO,SM,SMI_Lo,3.0721,NR,NR,NR,999.0000
179,5,11,116.3247,11.1811,TO_2,threat,0,VODKA,excavation,TI,SM,SMO_Lo,2.1497,NR,NR,NR,999.0000
180,5,12,127.5402,9.3854,F,threat,0,CARROT,foil,TO,FA,FAO_Lo,2.0119,NR,NR,NR,999.0000
181,5,13,136.9597,11.7581,TI_4,threat,1,RUDDER,amusement_arcade,NR,NR,NR,999.0000,NR,NR,NR,999.0000
182,5,14,148.7535,9.7489,F,threat,0,ASPARAGUS,foil,TI,FA,FAI_Lo,3.7373,NR,NR,NR,999.0000
183,5,15,158.5364,9.6812,TO_4,threat,0,BEAVER,lift_bridge,TO,H,HO_Hi,1.9552,NR,NR,NR,999.0000
184,5,16,168.2517,9.9087,F,threat,0,PAN,foil,TI,FA,FAI_Lo,2.5991,NR,NR,NR,999.0000
185,5,17,178.1957,9.1712,TI_2,threat,0,BROWNIE,art_gallery,TO,SM,SMI_Lo,1.4521,NR,NR,NR,999.0000
186,5,18,187.4014,12.3245,TI_4,threat,0,SOOT,orchestra_pit,TI,H,HI_Hi,2.0778,NR,NR,NR,999.0000
187,5,19,199.7599,10.4671,TI_2,threat,0,KALE,parking_garage,TI,H,HI_Hi,1.7847,NR,NR,NR,999.0000
188,5,20,210.2624,11.6136,F,threat,0,PUDDLE,foil,TO,FA,FAO_Lo,2.2751,NR,NR,NR,999.0000
189,5,21,221.9100,10.0927,TO_2,threat,0,BABY,manufactured_home,TO,H,HO_Lo,2.8505,NR,NR,NR,999.0000
190,5,22,232.0376,9.1183,TI_4,threat,0,SARDINE,butchers_shop,TO,SM,SMI_Lo,3.0627,NR,NR,NR,999.0000
191,5,23,241.1910,9.2479,TO_2,threat,0,BOAT,lighthouse,TO,H,HO_Lo,2.5903,NR,NR,NR,999.0000
192,5,24,250.4746,9.1410,TI_4,threat,0,ACCORDIAN,biology_laboratory,TI,H,HI_Hi,1.5937,NR,NR,NR,999.0000
193,5,25,259.6500,11.2628,F,threat,0,PENCIL,foil,TO,FA,FAO_Lo,3.2487,NR,NR,NR,999.0000
194,5,26,270.9475,10.1024,TO_4,threat,0,NET,aqueduct,TO,H,HO_Hi,2.7728,NR,NR,NR,999.0000
195,5,27,281.0848,10.3654,TO_2,threat,0,BOOT,lock_chamber,TO,H,HO_Hi,2.3566,NR,NR,NR,999.0000
196,5,28,291.4843,10.6481,TI_2,threat,0,FOX,gymnasium,TO,SM,SMI_Lo,1.9651,NR,NR,NR,999.0000
197,5,29,302.1683,9.8888,F,threat,0,WALNUT,foil,TI,FA,FAI_Lo,2.1107,NR,NR,NR,999.0000
198,5,30,312.0920,9.9273,TO_4,threat,0,HONEY,hangar,TO,H,HO_Hi,2.5595,NR,NR,NR,999.0000
199,5,31,322.0540,10.9899,F,threat,0,THONG,foil,TO,FA,FAO_Lo,2.4512,NR,NR,NR,999.0000
200,5,32,333.0791,9.3709,TI_4,threat,0,TOAST,burial_chamber,TI,H,HI_Lo,1.8567,NR,NR,NR,999.0000
201,5,33,342.4849,9.2687,TO_4,threat,0,ORCHID,bamboo_forest,TO,H,HO_Hi,2.1857,NR,NR,NR,999.0000
202,5,34,351.7883,10.5492,F,threat,0,HELMET,foil,TI,FA,FAI_Lo,1.3155,NR,NR,NR,999.0000
203,5,35,362.3731,9.5305,TO_4,threat,0,CROWN,boat_deck,TO,H,HO_Lo,2.5620,NR,NR,NR,999.0000
204,5,36,371.9384,10.5638,TO_2,threat,0,STORK,mosque,TO,H,HO_Hi,2.4771,NR,NR,NR,999.0000
205,5,37,382.5370,9.9838,TI_2,threat,0,DAMSEL,natural_history_museum,TO,SM,SMI_Lo,2.4771,NR,NR,NR,999.0000
206,5,38,392.5558,12.7040,F,threat,1,SUNBURN,foil,TO,FA,FAO_Lo,2.1194,NR,NR,NR,999.0000
207,5,39,405.2980,9.1074,TO_4,threat,0,LIGHTNING,watering_hole,TI,SM,SMO_Lo,1.4898,NR,NR,NR,999.0000
208,5,40,414.4434,9.7458,TI_2,threat,0,TOWEL,art_studio,TI,H,HI_Lo,2.0409,NR,NR,NR,999.0000
209,5,41,424.2279,10.1883,F,threat,0,QUAIL,foil,TO,FA,FAO_Lo,1.6661,NR,NR,NR,999.0000
210,5,42,434.4542,9.9143,F,threat,0,SADDLE,foil,TO,FA,FAO_Lo,1.9569,NR,NR,NR,999.0000
211,6,1,12.0075,9.4146,F,safe,0,CUCUMBER,foil,TI,FA,FAI_Lo,2.6663,NR,NR,NR,999.0000
212,6,2,21.4588,9.7477,TI_2,safe,0,MONKEY,stage,TO,SM,SMI_Lo,1.6223,NR,NR,NR,999.0000
213,6,3,31.2421,9.3684,TO_2,safe,0,GOAT,basketball_court,TO,H,HO_Lo,1.4722,NR,NR,NR,999.0000
214,6,4,40.6463,9.9817,TI_4,safe,0,CAMERA,theater,TI,H,HI_Hi,3.1642,NR,NR,NR,999.0000
215,6,5,50.6635,9.5310,F,safe,0,CLAM,foil,TI,FA,FAI_Lo,1.7744,NR,NR,NR,999.0000
216,6,6,60.2309,11.2600,TO_4,safe,0,DOVE,castle,TO,H,HO_Hi,2.4327,NR,NR,NR,999.0000
217,6,7,71.5266,11.6753,TO_2,safe,0,SHOWER,boathouse,TI,SM,SMO_Lo,2.7468,NR,NR,NR,999.0000
218,6,8,83.2372,9.6836,TI_4,safe,0,KILT,toyshop,TI,H,HI_Hi,1.7287,NR,NR,NR,999.0000
219,6,9,92.9575,9.0942,TO_4,safe,0,SALAD,dock,TI,SM,SMO_Lo,1.9312,NR,NR,NR,999.0000
220,6,10,102.0875,9.9241,TI_4,safe,0,VELVET,riding_arena,TI,H,HI_Hi,2.7262,NR,NR,NR,999.0000
221,6,11,112.0477,9.2698,TI_2,safe,0,ACROBAT,catacomb,TO,SM,SMI_Hi,2.0047,NR,NR,NR,999.0000
222,6,12,121.3534,12.3236,TI_4,safe,0,LIME,locker_room,TI,H,HI_Hi,3.0800,NR,NR,NR,999.0000
223,6,13,133.7132,9.7472,TO_4,safe,0,WALRUS,bullring,TO,H,HO_Hi,1.7458,NR,NR,NR,999.0000
224,6,14,143.4964,9.2470,F,safe,0,GORILLA,foil,TI,FA,FAI_Lo,2.9626,NR,NR,NR,999.0000
225,6,15,152.7798,9.6271,TI_2,safe,0,HOOK,fastfood_restaurant,TI,H,HI_Hi,2.1016,NR,NR,NR,999.0000
226,6,16,162.4428,10.1003,TO_4,safe,0,MUSSEL,lido_deck,TO,H,HO_Hi,1.7352,NR,NR,NR,999.0000
227,6,17,172.5791,9.9055,F,safe,0,BAYONET,foil,TO,FA,FAO_Lo,2.9528,NR,NR,NR,999.0000
228,6,18,182.5209,11.1809,F,safe,0,OPIUM,foil,F,CR,CR,2.9017,NR,NR,NR,999.0000
229,6,19,193.7379,10.5608,TI_2,safe,0,BOWL,kitchenette,TO,SM,SMI_Lo,2.5367,NR,NR,NR,999.0000
230,6,20,204.3353,9.1721,F,safe,0,SCORPION,foil,TI,FA,FAI_Lo,2.3697,NR,NR,NR,999.0000
231,6,21,213.5437,11.6144,TO_2,safe,0,TULIP,iceberg,TO,H,HO_Hi,2.4417,NR,NR,NR,999.0000
232,6,22,225.1941,10.3655,F,safe,0,BASKET,foil,TO,FA,FAO_Lo,2.5771,NR,NR,NR,999.0000
233,6,23,235.5962,10.4636,F,safe,0,CAMEL,foil,TI,FA,FAI_Lo,1.8932,NR,NR,NR,999.0000
234,6,24,246.0960,10.7024,TO_2,safe,0,NAPKIN,dam,TO,H,HO_Hi,1.8576,NR,NR,NR,999.0000
235,6,25,256.8347,10.0899,F,safe,0,WHEAT,foil,TI,FA,FAI_Lo,2.6279,NR,NR,NR,999.0000
236,6,26,266.9612,9.1180,F,safe,0,ZIPPER,foil,TO,FA,FAO_Lo,2.4535,NR,NR,NR,999.0000
237,6,27,276.1152,9.8893,TO_4,safe,0,ROSE,canyon,TO,H,HO_Lo,2.9891,NR,NR,NR,999.0000
238,6,28,286.0408,10.1904,TO_2,safe,0,NEEDLE,pasture,TO,H,HO_Hi,3.1623,NR,NR,NR,999.0000
239,6,29,296.2677,9.8011,TI_4,safe,0,SPONGE,cubicle,TI,H,HI_Hi,2.9546,NR,NR,NR,999.0000
240,6,30,306.1048,10.6447,F,safe,0,CORAL,foil,TO,FA,FAO_Lo,2.9899,NR,NR,NR,999.0000
241,6,31,316.7862,9.1403,F,safe,0,ALLIGATOR,foil,TI,FA,FAI_Lo,1.8330,NR,NR,NR,999.0000
242,6,32,325.9622,10.5479,TO_2,safe,0,SCAB,cliff,TO,H,HO_Lo,2.6207,NR,NR,NR,999.0000
243,6,33,336.5461,12.3171,TI_2,safe,0,SHELL,ice_cream_parlor,TI,H,HI_Lo,2.1064,NR,NR,NR,999.0000
244,6,34,348.8996,9.0523,TI_2,safe,0,CRADLE,candy_store,TO,SM,SMI_Lo,1.8766,NR,NR,NR,999.0000
245,6,35,357.9892,9.9151,TI_4,safe,0,SAXOPHONE,movie_theater,TI,H,HI_Lo,3.2160,NR,NR,NR,999.0000
246,6,36,367.9401,9.7555,TO_4,safe,0,MEDAL,crosswalk,TO,H,HO_Hi,1.7030,NR,NR,NR,999.0000
247,6,37,377.7317,11.3300,TO_4,safe,0,TORNADO,driving_range,TO,H,HO_Lo,2.4908,NR,NR,NR,999.0000
248,6,38,389.0983,9.4113,F,safe,0,WOLF,foil,TI,FA,FAI_Lo,3.1632,NR,NR,NR,999.0000
249,6,39,398.5457,9.1089,F,safe,0,HAWK,foil,TO,FA,FAO_Lo,3.2197,NR,NR,NR,999.0000
250,6,40,407.6903,9.6793,TI_2,safe,0,VINE,attic,TI,H,HI_Hi,1.7877,NR,NR,NR,999.0000
251,6,41,417.4065,11.9368,TI_4,safe,0,CRAB,assembly_line,TI,H,HI_Hi,3.3003,NR,NR,NR,999.0000
252,6,42,429.3798,10.9883,TO_2,safe,0,PEARL,hotel,TO,H,HO_Lo,2.5091,NR,NR,NR,999.0000
