,run,trial,onset,duration,shockCond,shockTrial,target,associate,resp,acc,accSpec,respRT,subid,group,remove,anxious,happy,safe,stressed,life_stress,sleep,cond_orig,cond,reps,shock_and_post,conf,onset_adj,mem_conditions,obj_conditions,onset_code,rt_z,mem_conditions_byrep,onset_code_byrep
0,1,1,12.0191,10.6661,safe,0,BANDIT,cemetery,indoor,SM,SMO_Hi,2.1094,ap100,control-fmri,,3,2,3,3,4,4.5,TO_4,outdoor,4,0,Hi,0.0191,sourcemiss_hi,old,itemhit,-1.2038800913,sourcemiss_hi-4,itemhit-4
1,1,2,22.7129,9.1242,safe,0,WALRUS,foil,foil,CR,CR,1.7773,ap100,control-fmri,,3,2,3,3,4,4.5,F_0,foil,0,0,N,10.7129,CR,new,CR,-0.1286752619,CR-0,CR-0
2,1,3,31.8642,9.4224,safe,0,VIOLIN,throne_room,indoor,H,HI_Hi,1.6804,ap100,control-fmri,,3,2,3,3,4,4.5,TI_2,indoor,2,0,Hi,19.8642,sourcehit,old,sourcehit,-0.7460198777,sourcehit-2,sourcehit-2
3,1,4,41.3132,11.3389,safe,0,MEDAL,hayfield,outdoor,H,HO_Hi,1.7268,ap100,control-fmri,,3,2,3,3,4,4.5,TO_2,outdoor,2,0,Hi,29.3132,sourcehit,old,sourcehit,-0.6738595226,sourcehit-2,sourcehit-2
4,1,5,52.6786,9.7644,safe,0,MANURE,canyon,outdoor,H,HO_Hi,1.3734,ap100,control-fmri,,3,2,3,3,4,4.5,TO_2,outdoor,2,0,Hi,40.6786,sourcehit,old,sourcehit,-1.223460158,sourcehit-2,sourcehit-2
5,1,6,62.4701,9.118,safe,0,SARDINE,mountain_snowy,outdoor,H,HO_Hi,2.1476,ap100,control-fmri,,3,2,3,3,4,4.5,TO_4,outdoor,4,0,Hi,50.4701,sourcehit,old,sourcehit,-0.0194397508,sourcehit-4,sourcehit-4
6,1,7,71.6147,10.1001,safe,0,SHEEP,foil,foil,CR,CR,2.0589,ap100,control-fmri,,3,2,3,3,4,4.5,F_0,foil,0,0,N,59.6147,CR,new,CR,0.5135534866,CR-0,CR-0
7,1,8,81.7414,9.9338,safe,0,TOBACCO,synagogue,foil,M,MI,1.9086,ap100,control-fmri,,3,2,3,3,4,4.5,TI_4,indoor,4,0,N,69.7414,M,old,M,-0.2200555102,M-4,M-4
8,1,9,91.7024,9.3774,safe,0,GOAT,bus_interior,foil,M,MI,2.1548,ap100,control-fmri,,3,2,3,3,4,4.5,TI_2,indoor,2,0,N,79.7024,M,old,M,0.1393916062,M-2,M-2
9,1,10,101.1064,9.758,safe,0,MILK,foil,foil,CR,CR,1.4059,ap100,control-fmri,,3,2,3,3,4,4.5,F_0,foil,0,0,N,89.1064,CR,new,CR,-0.9757056496,CR-0,CR-0
10,1,11,110.8911,9.2779,safe,0,POTATO,foil,foil,CR,CR,2.1454,ap100,control-fmri,,3,2,3,3,4,4.5,F_0,foil,0,0,N,98.8911,CR,new,CR,0.7108290077,CR-0,CR-0
11,1,12,120.1958,9.2563,safe,0,KALE,garbage_dump,foil,M,MI,1.2672,ap100,control-fmri,,3,2,3,3,4,4.5,TO_2,outdoor,2,0,N,108.1958,M,old,M,-1.1564867875,M-2,M-2
12,1,13,129.4794,9.6367,safe,0,OLIVE,foil,indoor,FA,FAI_Lo,2.0373,ap100,control-fmri,,3,2,3,3,4,4.5,F_0,foil,0,0,Lo,117.4794,FA,new,FA,-1.6234504997,FA-0,FA-0
13,1,14,139.1429,10.1996,safe,0,FLASK,foil,outdoor,FA,FAO_Lo,2.9702,ap100,control-fmri,,3,2,3,3,4,4.5,F_0,foil,0,0,Lo,127.1429,FA,new,FA,0.8251688367,FA-0,FA-0
14,1,15,149.3692,10.376,safe,0,SEAL,motel,outdoor,H,HO_Hi,2.1847,ap100,control-fmri,,3,2,3,3,4,4.5,TO_4,outdoor,4,0,Hi,137.3692,sourcehit,old,sourcehit,0.0382574296,sourcehit-4,sourcehit-4
15,1,16,159.7725,11.9447,safe,0,SCROLL,courtroom,indoor,H,HI_Hi,1.1404,ap100,control-fmri,,3,2,3,3,4,4.5,TI_2,indoor,2,0,Hi,147.7725,sourcehit,old,sourcehit,-1.5858171134,sourcehit-2,sourcehit-2
16,1,17,171.744,10.711,safe,0,SADDLE,foil,indoor,FA,FAI_Hi,3.426,ap100,control-fmri,,3,2,3,3,4,4.5,F_0,foil,0,0,Hi,159.744,FA,new,FA,2.0215250308,FA-0,FA-0
17,1,18,182.4824,9.8992,safe,0,ORANGE,foil,foil,CR,CR,1.8926,ap100,control-fmri,,3,2,3,3,4,4.5,F_0,foil,0,0,N,170.4824,CR,new,CR,0.1342827448,CR-0,CR-0
18,1,19,192.4083,9.3927,safe,0,CORAL,library,indoor,H,HI_Hi,1.9019,ap100,control-fmri,,3,2,3,3,4,4.5,TI_2,indoor,2,0,Hi,180.4083,sourcehit,old,sourcehit,-0.4015474931,sourcehit-2,sourcehit-2
19,1,20,201.8279,9.5393,safe,0,ANCHOR,ice_shelf,outdoor,H,HO_Hi,1.6995,ap100,control-fmri,,3,2,3,3,4,4.5,TO_4,outdoor,4,0,Hi,189.8279,sourcehit,old,sourcehit,-0.7163159385,sourcehit-4,sourcehit-4
20,1,21,211.3947,9.7577,safe,0,TYPEWRITER,harbor,outdoor,H,HO_Hi,1.9145,ap100,control-fmri,,3,2,3,3,4,4.5,TO_2,outdoor,2,0,Hi,199.3947,sourcehit,old,sourcehit,-0.3819522242,sourcehit-2,sourcehit-2
21,1,22,221.1792,11.6825,safe,0,PASSPORT,dining_room,indoor,H,HI_Hi,2.0579,ap100,control-fmri,,3,2,3,3,4,4.5,TI_4,indoor,4,0,Hi,209.1792,sourcehit,old,sourcehit,-0.1589394028,sourcehit-4,sourcehit-4
22,1,23,232.8887,9.9923,safe,0,QUAIL,kennel,indoor,H,HI_Hi,2.2149,ap100,control-fmri,,3,2,3,3,4,4.5,TI_2,indoor,2,0,Hi,220.8887,sourcehit,old,sourcehit,0.0852238676,sourcehit-2,sourcehit-2
23,1,24,242.9084,9.1032,safe,0,SHOWER,control_room,outdoor,SM,SMI_Hi,2.1681,ap100,control-fmri,,3,2,3,3,4,4.5,TI_4,indoor,4,0,Hi,230.9084,sourcemiss_hi,old,itemhit,-1.1032457435,sourcemiss_hi-4,itemhit-4
24,1,25,252.0384,9.6899,safe,0,FENCE,foil,indoor,FA,FAI_Lo,2.5304,ap100,control-fmri,,3,2,3,3,4,4.5,F_0,foil,0,0,Lo,240.0384,FA,new,FA,-0.3291915279,FA-0,FA-0
25,1,26,261.7552,12.325,safe,0,WAND,bistro,indoor,H,HI_Hi,2.2387,ap100,control-fmri,,3,2,3,3,4,4.5,TI_4,indoor,4,0,Hi,249.7552,sourcehit,old,sourcehit,0.1222371532,sourcehit-4,sourcehit-4
26,1,27,274.1083,10.5722,safe,0,PENCIL,hospital_room,foil,M,MI,1.5371,ap100,control-fmri,,3,2,3,3,4,4.5,TI_2,indoor,2,0,N,262.1083,M,old,M,-0.7624381412,M-2,M-2
27,1,28,284.7073,10.9982,safe,0,POWDER,dentists_office,outdoor,SM,SMI_Lo,2.8854,ap100,control-fmri,,3,2,3,3,4,4.5,TI_2,indoor,2,0,Lo,272.7073,itemhit_lo,old,itemhit,0.3474597344,itemhit_lo-2,itemhit-2
28,1,29,295.7324,12.3318,safe,0,PEDAL,labyrinth,indoor,SM,SMO_Lo,2.257,ap100,control-fmri,,3,2,3,3,4,4.5,TO_2,outdoor,2,0,Lo,283.7324,itemhit_lo,old,itemhit,-1.3080136613,itemhit_lo-2,itemhit-2
29,1,30,308.0917,10.1092,safe,0,GLOBE,foil,foil,CR,CR,1.6836,ap100,control-fmri,,3,2,3,3,4,4.5,F_0,foil,0,0,N,296.0917,CR,new,CR,-0.3423714044,CR-0,CR-0
30,1,31,318.2279,9.0611,safe,0,OATMEAL,raceway,foil,M,MI,1.1664,ap100,control-fmri,,3,2,3,3,4,4.5,TO_2,outdoor,2,0,N,306.2279,M,old,M,-1.303652788,M-2,M-2
31,1,32,327.3167,9.1808,safe,0,BALLOON,baseball_field,outdoor,H,HO_Hi,2.1867,ap100,control-fmri,,3,2,3,3,4,4.5,TO_4,outdoor,4,0,Hi,315.3167,sourcehit,old,sourcehit,0.0413677898,sourcehit-4,sourcehit-4
32,1,33,336.5251,10.4703,safe,0,UMBRELLA,foil,foil,CR,CR,2.0159,ap100,control-fmri,,3,2,3,3,4,4.5,F_0,foil,0,0,N,324.5251,CR,new,CR,0.4154858865,CR-0,CR-0
33,1,34,347.0223,11.6247,safe,0,APPLE,chicken_coop,indoor,H,HI_Hi,3.1311,ap100,control-fmri,,3,2,3,3,4,4.5,TI_4,indoor,4,0,Hi,335.0223,sourcehit,old,sourcehit,1.5100798442,sourcehit-4,sourcehit-4
34,1,35,358.674,9.8091,safe,0,KNIFE,lido_deck,foil,M,MI,3.3305,ap100,control-fmri,,3,2,3,3,4,4.5,TO_4,outdoor,4,0,N,346.674,M,old,M,1.8558902851,M-4,M-4
35,1,36,368.5106,11.2699,safe,0,COFFEE,foil,foil,CR,CR,2.0105,ap100,control-fmri,,3,2,3,3,4,4.5,F_0,foil,0,0,N,356.5106,CR,new,CR,0.4031704204,CR-0,CR-0
36,1,37,379.8075,9.9251,safe,0,STOOL,bakery,indoor,H,HI_Hi,1.7078,ap100,control-fmri,,3,2,3,3,4,4.5,TI_4,indoor,4,0,Hi,367.8075,sourcehit,old,sourcehit,-0.7034079439,sourcehit-4,sourcehit-4
37,1,38,389.7596,9.69,safe,0,WALLET,castle,indoor,SM,SMO_Hi,3.834,ap100,control-fmri,,3,2,3,3,4,4.5,TO_2,outdoor,2,0,Hi,377.7596,sourcemiss_hi,old,itemhit,1.7527467609,sourcemiss_hi-2,itemhit-2
38,1,39,399.4766,9.1504,safe,0,WINE,foil,foil,CR,CR,1.7807,ap100,control-fmri,,3,2,3,3,4,4.5,F_0,foil,0,0,N,387.4766,CR,new,CR,-0.1209210796,CR-0,CR-0
39,1,40,408.6541,11.1887,safe,0,CLOAK,hotel,outdoor,H,HO_Hi,2.5868,ap100,control-fmri,,3,2,3,3,4,4.5,TO_4,outdoor,4,0,Hi,396.6541,sourcehit,old,sourcehit,0.6635953342,sourcehit-4,sourcehit-4
40,1,41,419.8698,9.916,safe,0,SPONGE,foil,foil,CR,CR,2.0631,ap100,control-fmri,,3,2,3,3,4,4.5,F_0,foil,0,0,N,407.8698,CR,new,CR,0.5231321824,CR-0,CR-0
41,1,42,429.8134,10.5553,safe,0,SANDAL,attic,indoor,H,HI_Hi,2.6174,ap100,control-fmri,,3,2,3,3,4,4.5,TI_4,indoor,4,0,Hi,417.8134,sourcehit,old,sourcehit,0.7111838442,sourcehit-4,sourcehit-4
42,2,1,12.0051,9.78,threat,0,GEESE,foil,foil,CR,CR,1.8908,ap100,control-fmri,,3,2,3,3,4,4.5,F_0,foil,0,0,N,0.0051,CR,new,CR,0.1301775895,CR-0,CR-0
43,2,2,21.8151,10.6514,threat,0,SCOTCH,aquarium,indoor,H,HI_Hi,2.0223,ap100,control-fmri,,3,2,3,3,4,4.5,TI_4,indoor,4,0,Hi,9.8151,sourcehit,old,sourcehit,-0.2143038131,sourcehit-4,sourcehit-4
44,2,3,32.4959,9.1471,threat,0,QUARTER,foil,indoor,FA,FAI_Hi,2.3828,ap100,control-fmri,,3,2,3,3,4,4.5,F_0,foil,0,0,Hi,20.4959,FA,new,FA,-0.7166030554,FA-0,FA-0
45,2,4,41.6727,9.7624,threat,0,RIFLE,theater,indoor,H,HI_Hi,2.9159,ap100,control-fmri,,3,2,3,3,4,4.5,TI_2,indoor,2,0,Hi,29.6727,sourcehit,old,sourcehit,1.175405094,sourcehit-2,sourcehit-2
46,2,5,51.4644,9.6349,threat,0,SUNBURN,operating_room,indoor,H,HI_Hi,1.7658,ap100,control-fmri,,3,2,3,3,4,4.5,TI_2,indoor,2,0,Hi,39.4644,sourcehit,old,sourcehit,-0.6132075001,sourcehit-2,sourcehit-2
47,2,6,61.1284,9.4175,threat,0,BENCH,foil,foil,CR,CR,1.7617,ap100,control-fmri,,3,2,3,3,4,4.5,F_0,foil,0,0,N,49.1284,CR,new,CR,-0.164253275,CR-0,CR-0
48,2,7,70.5756,9.1161,threat,0,WHEAT,foil,foil,CR,CR,2.9862,ap100,control-fmri,,3,2,3,3,4,4.5,F_0,foil,0,0,N,58.5756,CR,new,CR,2.6283926856,CR-0,CR-0
49,2,8,79.721,10.9973,threat,0,WITCH,foil,foil,CR,CR,1.4861,ap100,control-fmri,,3,2,3,3,4,4.5,F_0,foil,0,0,N,67.721,CR,new,CR,-0.7927981723,CR-0,CR-0
50,2,9,90.7475,9.8963,threat,0,SLIPPER,classroom,indoor,H,HI_Lo,3.1311,ap100,control-fmri,,3,2,3,3,4,4.5,TI_4,indoor,4,0,Lo,78.7475,itemhit_lo,old,itemhit,0.9947382407,itemhit_lo-4,itemhit-4
51,2,10,100.6737,11.9425,threat,0,RACQUET,foil,foil,CR,CR,2.0321,ap100,control-fmri,,3,2,3,3,4,4.5,F_0,foil,0,0,N,88.6737,CR,new,CR,0.4524322847,CR-0,CR-0
52,2,11,112.6455,12.3239,threat,0,ZIPPER,bridge,outdoor,H,HO_Hi,3.3936,ap100,control-fmri,,3,2,3,3,4,4.5,TO_4,outdoor,4,0,Hi,100.6455,sourcehit,old,sourcehit,1.9183146116,sourcehit-4,sourcehit-4
53,2,12,124.9987,9.7539,threat,0,BRAIN,foil,foil,CR,CR,1.8108,ap100,control-fmri,,3,2,3,3,4,4.5,F_0,foil,0,0,N,112.9987,CR,new,CR,-0.0522737595,CR-0,CR-0
54,2,13,134.7824,9.2536,threat,0,ROCK,hill,foil,M,MI,2.1578,ap100,control-fmri,,3,2,3,3,4,4.5,TO_2,outdoor,2,0,N,122.7824,M,old,M,0.1437715467,M-2,M-2
55,2,14,144.0653,12.3303,threat,0,DIAMOND,foil,foil,CR,CR,1.6928,ap100,control-fmri,,3,2,3,3,4,4.5,F_0,foil,0,0,N,132.0653,CR,new,CR,-0.3213894993,CR-0,CR-0
56,2,15,156.425,9.9895,threat,0,CAGE,foil,outdoor,FA,FAO_Lo,2.6936,ap100,control-fmri,,3,2,3,3,4,4.5,F_0,foil,0,0,Lo,144.425,FA,new,FA,0.0991659334,FA-0,FA-0
57,2,16,166.4444,11.6797,threat,0,WRENCH,supermarket,foil,M,MI,1.5069,ap100,control-fmri,,3,2,3,3,4,4.5,TI_2,indoor,2,0,N,154.4444,M,old,M,-0.8065295422,M-2,M-2
58,2,17,178.154,11.1869,threat,0,CARROT,fishpond,outdoor,H,HO_Lo,2.7416,ap100,control-fmri,,3,2,3,3,4,4.5,TO_4,outdoor,4,0,Lo,166.154,itemhit_lo,old,itemhit,-0.0313707467,itemhit_lo-4,itemhit-4
59,2,18,189.371,10.5682,threat,0,LANTERN,foil,indoor,FA,FAI_Lo,2.0873,ap100,control-fmri,,3,2,3,3,4,4.5,F_0,foil,0,0,Lo,177.371,FA,new,FA,-1.4922135323,FA-0,FA-0
60,2,19,199.9686,10.5533,threat,0,SHARK,kitchenette,foil,M,MI,1.8905,ap100,control-fmri,,3,2,3,3,4,4.5,TI_2,indoor,2,0,N,187.9686,M,old,M,-0.2464811512,M-2,M-2
61,2,20,210.5524,9.1776,threat,0,HATCHET,foil,foil,CR,CR,1.7955,ap100,control-fmri,,3,2,3,3,4,4.5,F_0,foil,0,0,N,198.5524,CR,new,CR,-0.08716758,CR-0,CR-0
62,2,21,219.7599,9.688,threat,0,PENNY,badminton_court,indoor,H,HI_Hi,1.6734,ap100,control-fmri,,3,2,3,3,4,4.5,TI_2,indoor,2,0,Hi,207.7599,sourcehit,old,sourcehit,-0.7569061382,sourcehit-2,sourcehit-2
63,2,22,229.4774,9.1007,threat,0,JUGGLER,chalet,outdoor,H,HO_Hi,2.9014,ap100,control-fmri,,3,2,3,3,4,4.5,TO_2,outdoor,2,0,Hi,217.4774,sourcehit,old,sourcehit,1.152854983,sourcehit-2,sourcehit-2
64,2,23,238.6075,11.2677,threat,0,TURTLE,stable,indoor,H,HI_Lo,2.5211,ap100,control-fmri,,3,2,3,3,4,4.5,TI_4,indoor,4,0,Lo,226.6075,itemhit_lo,old,itemhit,-0.6122617138,itemhit_lo-4,itemhit-4
65,2,24,249.9052,9.9118,threat,0,TOAST,foil,foil,CR,CR,2.3373,ap100,control-fmri,,3,2,3,3,4,4.5,F_0,foil,0,0,N,237.9052,CR,new,CR,1.1484841811,CR-0,CR-0
66,2,25,259.8464,10.1076,threat,0,VODKA,kitchen,indoor,H,HI_Hi,1.2684,ap100,control-fmri,,3,2,3,3,4,4.5,TI_4,indoor,4,0,Hi,247.8464,sourcehit,old,sourcehit,-1.386754065,sourcehit-4,sourcehit-4
67,2,26,269.9834,9.0584,threat,0,BAYONET,campsite,outdoor,H,HO_Hi,2.0372,ap100,control-fmri,,3,2,3,3,4,4.5,TO_4,outdoor,4,0,Hi,257.9834,sourcehit,old,sourcehit,-0.1911316301,sourcehit-4,sourcehit-4
68,2,27,279.0624,9.6949,threat,0,CRADLE,foil,foil,CR,CR,2.4066,ap100,control-fmri,,3,2,3,3,4,4.5,F_0,foil,0,0,N,267.0624,CR,new,CR,1.3065326622,CR-0,CR-0
69,2,28,288.7917,10.1932,threat,0,NAPKIN,art_studio,foil,M,MI,3.4873,ap100,control-fmri,,3,2,3,3,4,4.5,TI_4,indoor,4,0,N,276.7917,M,old,M,2.0848151749,M-4,M-4
70,2,29,299.0143,9.39,threat,0,OWL,foil,foil,CR,CR,1.4985,ap100,control-fmri,,3,2,3,3,4,4.5,F_0,foil,0,0,N,287.0143,CR,new,CR,-0.7645182132,CR-0,CR-0
71,2,30,308.4334,10.4723,threat,0,NOODLE,,indoor,H,HI_Hi,2.5442,ap100,control-fmri,,3,2,3,3,4,4.5,TI_2,indoor,2,0,Hi,296.4334,sourcehit,old,sourcehit,0.5973446634,sourcehit-2,sourcehit-2
72,2,31,318.9353,9.5357,threat,0,PAN,nuclear_power_plant,indoor,SM,SMO_Lo,2.8417,ap100,control-fmri,,3,2,3,3,4,4.5,TO_2,outdoor,2,0,Lo,306.9353,itemhit_lo,old,itemhit,0.2323353114,itemhit_lo-2,itemhit-2
73,2,32,328.4999,9.3754,threat,0,OYSTER,balcony,foil,M,MI,2.2687,ap100,control-fmri,,3,2,3,3,4,4.5,TO_4,outdoor,4,0,N,316.4999,M,old,M,0.3056833469,M-4,M-4
74,2,33,337.9044,9.2758,threat,0,CHERRY,toyshop,outdoor,SM,SMI_Hi,3.1778,ap100,control-fmri,,3,2,3,3,4,4.5,TI_2,indoor,2,0,Hi,325.9044,sourcemiss_hi,old,itemhit,0.6277679018,sourcemiss_hi-2,itemhit-2
75,2,34,347.2092,11.3385,threat,0,CHICKEN,playroom,foil,M,MI,2.5935,ap100,control-fmri,,3,2,3,3,4,4.5,TI_4,indoor,4,0,N,335.2092,M,old,M,0.7798849042,M-4,M-4
76,2,35,358.5767,9.8076,threat,1,FIDDLE,fire_station,outdoor,H,HO_Hi,2.2017,ap100,control-fmri,,3,2,3,3,4,4.5,TO_2,outdoor,2,0,Hi,346.5767,sourcehit,old,sourcehit,0.0646954908,sourcehit-2,sourcehit-2
77,2,36,368.4136,9.9222,threat,0,ALLIGATOR,forest_needleleaf,indoor,SM,SMO_Lo,2.5721,ap100,control-fmri,,3,2,3,3,4,4.5,TO_2,outdoor,2,0,Lo,356.4136,itemhit_lo,old,itemhit,-0.4779059799,itemhit_lo-2,itemhit-2
78,2,37,378.3649,10.0952,threat,0,CANDY,excavation,outdoor,H,HO_Hi,2.7589,ap100,control-fmri,,3,2,3,3,4,4.5,TO_2,outdoor,2,0,Hi,366.3649,sourcehit,old,sourcehit,0.9312418236,sourcehit-2,sourcehit-2
79,2,38,388.4892,10.7104,threat,0,ANT,creek,indoor,SM,SMO_Hi,3.041,ap100,control-fmri,,3,2,3,3,4,4.5,TO_4,outdoor,4,0,Hi,376.4892,sourcemiss_hi,old,itemhit,0.3932401543,sourcemiss_hi-4,itemhit-4
80,2,39,399.2287,11.6218,threat,0,ROSE,observatory,foil,M,MI,3.5428,ap100,control-fmri,,3,2,3,3,4,4.5,TO_2,outdoor,2,0,N,387.2287,M,old,M,2.165844074,M-2,M-2
81,2,40,410.8797,9.1244,threat,0,TULIP,athletic_field,outdoor,H,HO_Hi,2.9423,ap100,control-fmri,,3,2,3,3,4,4.5,TO_4,outdoor,4,0,Hi,398.8797,sourcehit,old,sourcehit,1.2164618477,sourcehit-4,sourcehit-4
82,2,41,420.0332,9.9335,threat,0,QUILT,laundromat,indoor,H,HI_Hi,2.3348,ap100,control-fmri,,3,2,3,3,4,4.5,TI_4,indoor,4,0,Hi,408.0332,sourcehit,old,sourcehit,0.2716899575,sourcehit-4,sourcehit-4
83,2,42,429.9967,10.3706,threat,0,MAP,house,outdoor,H,HO_Hi,1.9506,ap100,control-fmri,,3,2,3,3,4,4.5,TO_4,outdoor,4,0,Hi,417.9967,sourcehit,old,sourcehit,-0.3258102239,sourcehit-4,sourcehit-4
84,3,1,12.0056,9.8332,safe,0,FOX,butte,outdoor,H,HO_Hi,2.6985,ap100,control-fmri,,3,2,3,3,4,4.5,TO_2,outdoor,2,0,Hi,0.0056,sourcehit,old,sourcehit,0.8373089476,sourcehit-2,sourcehit-2
85,3,2,21.8708,10.5653,safe,0,WOLF,foil,foil,CR,CR,1.3007,ap100,control-fmri,,3,2,3,3,4,4.5,F_0,foil,0,0,N,9.8708,CR,new,CR,-1.2156291736,CR-0,CR-0
86,3,3,32.4679,12.3277,safe,0,OTTER,pagoda,outdoor,H,HO_Hi,2.2748,ap100,control-fmri,,3,2,3,3,4,4.5,TO_4,outdoor,4,0,Hi,20.4679,sourcehit,old,sourcehit,0.1783791536,sourcehit-4,sourcehit-4
87,3,4,44.8262,11.9404,safe,0,MITTEN,television_studio,indoor,H,HI_Hi,1.9431,ap100,control-fmri,,3,2,3,3,4,4.5,TI_2,indoor,2,0,Hi,32.8262,sourcehit,old,sourcehit,-0.3374740743,sourcehit-2,sourcehit-2
88,3,5,56.7968,9.7545,safe,0,CHOCOLATE,construction_site,outdoor,H,HO_Hi,1.1772,ap100,control-fmri,,3,2,3,3,4,4.5,TO_4,outdoor,4,0,Hi,44.7968,sourcehit,old,sourcehit,-1.528586487,sourcehit-4,sourcehit-4
89,3,6,66.5814,10.1986,safe,0,TROPHY,aqueduct,outdoor,H,HO_Hi,2.2044,ap100,control-fmri,,3,2,3,3,4,4.5,TO_2,outdoor,2,0,Hi,54.5814,sourcehit,old,sourcehit,0.0688944769,sourcehit-2,sourcehit-2
90,3,7,76.8105,9.124,safe,0,CROWN,apse,indoor,H,HI_Lo,2.0767,ap100,control-fmri,,3,2,3,3,4,4.5,TI_2,indoor,2,0,Lo,64.8105,itemhit_lo,old,itemhit,-1.783000697,itemhit_lo-2,itemhit-2
91,3,8,85.9646,9.7605,safe,0,TRIBE,foil,foil,CR,CR,1.608,ap100,control-fmri,,3,2,3,3,4,4.5,F_0,foil,0,0,N,73.9646,CR,new,CR,-0.5147879292,CR-0,CR-0
92,3,9,95.7552,9.1788,safe,0,SCORPION,foil,foil,CR,CR,1.6244,ap100,control-fmri,,3,2,3,3,4,4.5,F_0,foil,0,0,N,83.7552,CR,new,CR,-0.4773854027,CR-0,CR-0
93,3,10,104.9645,10.1043,safe,0,YACHT,putting_green,no response,no response,no response,999,ap100,control-fmri,,3,2,3,3,4,4.5,TO_2,outdoor,2,0,N,92.9645,nuisance,old,nuisance,,nuisance-2,nuisance-2
94,3,11,115.0988,9.1466,safe,0,PUDDLE,oilrig,outdoor,H,HO_Hi,1.9681,ap100,control-fmri,,3,2,3,3,4,4.5,TO_2,outdoor,2,0,Hi,103.0988,sourcehit,old,sourcehit,-0.2985945727,sourcehit-2,sourcehit-2
95,3,12,124.2753,9.9138,safe,0,THONG,auto_factory,outdoor,SM,SMI_Hi,2.9711,ap100,control-fmri,,3,2,3,3,4,4.5,TI_4,indoor,4,0,Hi,112.2753,sourcemiss_hi,old,itemhit,0.2734047043,sourcemiss_hi-4,itemhit-4
96,3,13,134.2197,10.0933,safe,0,SAXOPHONE,computer_room,indoor,H,HI_Hi,2.5599,ap100,control-fmri,,3,2,3,3,4,4.5,TI_4,indoor,4,0,Hi,122.2197,sourcehit,old,sourcehit,0.6217609904,sourcehit-4,sourcehit-4
97,3,14,144.343,9.1002,safe,0,BONE,foil,foil,CR,CR,1.2778,ap100,control-fmri,,3,2,3,3,4,4.5,F_0,foil,0,0,N,132.343,CR,new,CR,-1.2678558722,CR-0,CR-0
98,3,15,153.4732,9.3918,safe,0,DRUG,foil,foil,CR,CR,1.5375,ap100,control-fmri,,3,2,3,3,4,4.5,F_0,foil,0,0,N,141.4732,CR,new,CR,-0.6755731805,CR-0,CR-0
99,3,16,162.8955,11.2643,safe,0,PLUG,elevator,indoor,H,HI_Hi,2.0999,ap100,control-fmri,,3,2,3,3,4,4.5,TI_2,indoor,2,0,Hi,150.8955,sourcehit,old,sourcehit,-0.09362184,sourcehit-2,sourcehit-2
100,3,17,174.1897,9.9325,safe,0,PANTS,foil,foil,CR,CR,2.2177,ap100,control-fmri,,3,2,3,3,4,4.5,F_0,foil,0,0,N,162.1897,CR,new,CR,0.8757194143,CR-0,CR-0
101,3,18,184.1522,9.8945,safe,0,ROSARY,engine_room,indoor,H,HI_Hi,1.9605,ap100,control-fmri,,3,2,3,3,4,4.5,TI_2,indoor,2,0,Hi,172.1522,sourcehit,old,sourcehit,-0.3104139412,sourcehit-2,sourcehit-2
102,3,19,194.0772,11.68,safe,0,DESK,shopping_mall,indoor,H,HI_Hi,2.7655,ap100,control-fmri,,3,2,3,3,4,4.5,TI_2,indoor,2,0,Hi,182.0772,sourcehit,old,sourcehit,0.941506012,sourcehit-2,sourcehit-2
103,3,20,205.7877,9.537,safe,0,LIGHTNING,archive,indoor,H,HI_Hi,1.1322,ap100,control-fmri,,3,2,3,3,4,4.5,TI_4,indoor,4,0,Hi,193.7877,sourcehit,old,sourcehit,-1.59856959,sourcehit-4,sourcehit-4
104,3,21,215.3552,11.6193,safe,0,ACROBAT,patio,foil,M,MI,3.1676,ap100,control-fmri,,3,2,3,3,4,4.5,TO_4,outdoor,4,0,N,203.3552,M,old,M,1.6180595164,M-4,M-4
105,3,22,227.0054,9.1156,safe,0,CLARINET,foil,foil,CR,CR,2.0097,ap100,control-fmri,,3,2,3,3,4,4.5,F_0,foil,0,0,N,215.0054,CR,new,CR,0.4013459069,CR-0,CR-0
106,3,23,236.1514,10.4682,safe,0,SCAB,iceberg,foil,M,MI,1.4719,ap100,control-fmri,,3,2,3,3,4,4.5,TO_4,outdoor,4,0,N,224.1514,M,old,M,-0.8576288479,M-4,M-4
107,3,24,246.65,10.9952,safe,0,BLANKET,foil,indoor,FA,FAI_Lo,2.764,ap100,control-fmri,,3,2,3,3,4,4.5,F_0,foil,0,0,Lo,234.65,FA,new,FA,0.2839475834,FA-0,FA-0
108,3,25,257.6762,9.9878,safe,0,HIGHWAY,boxing_ring,indoor,H,HI_Hi,2.9458,ap100,control-fmri,,3,2,3,3,4,4.5,TI_4,indoor,4,0,Hi,245.6762,sourcehit,old,sourcehit,1.2219049779,sourcehit-4,sourcehit-4
109,3,26,267.6946,9.2739,safe,0,SHELL,landing_deck,outdoor,H,HO_Hi,2.0958,ap100,control-fmri,,3,2,3,3,4,4.5,TO_4,outdoor,4,0,Hi,255.6946,sourcehit,old,sourcehit,-0.0999980783,sourcehit-4,sourcehit-4
110,3,27,276.9989,9.3754,safe,0,ELEPHANT,mosque,indoor,SM,SMO_Lo,3.3213,ap100,control-fmri,,3,2,3,3,4,4.5,TO_4,outdoor,4,0,Lo,264.9989,itemhit_lo,old,itemhit,1.4958060953,itemhit_lo-4,itemhit-4
111,3,28,286.405,9.6872,safe,0,SPATULA,ice_skating_rink,indoor,H,HI_Hi,1.9157,ap100,control-fmri,,3,2,3,3,4,4.5,TI_2,indoor,2,0,Hi,274.405,sourcehit,old,sourcehit,-0.3800860082,sourcehit-2,sourcehit-2
112,3,29,296.1226,10.709,safe,0,SCOOTER,foil,foil,CR,CR,2.6698,ap100,control-fmri,,3,2,3,3,4,4.5,F_0,foil,0,0,N,284.1226,CR,new,CR,1.9067976004,CR-0,CR-0
113,4,1,12.0138,9.7047,threat,0,PYTHON,manufactured_home,indoor,SM,SMO_Hi,2.2389,ap100,control-fmri,,3,2,3,3,4,4.5,TO_4,outdoor,4,0,Hi,0.0138,sourcemiss_hi,old,itemhit,-0.9818673478,sourcemiss_hi-4,itemhit-4
114,4,2,21.7462,9.3914,threat,0,CLAM,mountain,foil,M,MI,2.2675,ap100,control-fmri,,3,2,3,3,4,4.5,TO_2,outdoor,2,0,N,9.7462,M,old,M,0.3039313707,M-2,M-2
115,4,3,31.1725,10.5629,threat,0,CANARY,biology_laboratory,outdoor,SM,SMI_Lo,2.8871,ap100,control-fmri,,3,2,3,3,4,4.5,TI_4,indoor,4,0,Lo,19.1725,itemhit_lo,old,itemhit,0.3519382589,itemhit_lo-4,itemhit-4
116,4,4,41.7634,10.6536,threat,0,RING,office,indoor,H,HI_Hi,1.4797,ap100,control-fmri,,3,2,3,3,4,4.5,TI_4,indoor,4,0,Hi,29.7634,sourcehit,old,sourcehit,-1.058144517,sourcehit-4,sourcehit-4
117,4,5,52.4453,12.3261,threat,0,SEAWEED,foil,foil,CR,CR,2.394,ap100,control-fmri,,3,2,3,3,4,4.5,F_0,foil,0,0,N,40.4453,CR,new,CR,1.2777965747,CR-0,CR-0
118,4,6,64.7992,9.1266,threat,0,KEG,gymnasium,indoor,H,HI_Hi,3.1565,ap100,control-fmri,,3,2,3,3,4,4.5,TI_2,indoor,2,0,Hi,52.7992,sourcehit,old,sourcehit,1.5495814179,sourcehit-2,sourcehit-2
119,4,7,73.9537,11.9452,threat,0,EMPEROR,boardwalk,outdoor,H,HO_Hi,1.3992,ap100,control-fmri,,3,2,3,3,4,4.5,TO_2,outdoor,2,0,Hi,61.9537,sourcehit,old,sourcehit,-1.1833365123,sourcehit-2,sourcehit-2
120,4,8,85.9273,9.1014,threat,0,SYRUP,cottage_garden,foil,M,MI,3.3278,ap100,control-fmri,,3,2,3,3,4,4.5,TO_4,outdoor,4,0,N,73.9273,M,old,M,1.8519483387,M-4,M-4
121,4,9,95.0567,11.3388,threat,0,BROOM,electrical_substation,outdoor,H,HO_Hi,2.4402,ap100,control-fmri,,3,2,3,3,4,4.5,TO_2,outdoor,2,0,Hi,83.0567,sourcehit,old,sourcehit,0.4356059365,sourcehit-2,sourcehit-2
122,4,10,106.424,9.8071,threat,0,BANDAGE,crevasse,outdoor,H,HO_Hi,1.1946,ap100,control-fmri,,3,2,3,3,4,4.5,TO_4,outdoor,4,0,Hi,94.424,sourcehit,old,sourcehit,-1.5015263538,sourcehit-4,sourcehit-4
123,4,11,116.259,10.4732,threat,0,SHOVEL,foil,outdoor,FA,FAO_Lo,2.8229,ap100,control-fmri,,3,2,3,3,4,4.5,F_0,foil,0,0,Lo,104.259,FA,new,FA,0.4385447309,FA-0,FA-0
124,4,12,126.7602,9.1173,threat,0,FROG,foil,indoor,FA,FAI_Lo,2.2839,ap100,control-fmri,,3,2,3,3,4,4.5,F_0,foil,0,0,Lo,114.7602,FA,new,FA,-0.9761897768,FA-0,FA-0
125,4,13,135.9061,9.6339,threat,0,STOMACH,phone_booth,outdoor,H,HO_Hi,3.5076,ap100,control-fmri,,3,2,3,3,4,4.5,TO_4,outdoor,4,0,Hi,123.9061,sourcehit,old,sourcehit,2.0956051391,sourcehit-4,sourcehit-4
126,4,14,145.5686,9.2557,threat,0,BANANA,foil,foil,CR,CR,1.8852,ap100,control-fmri,,3,2,3,3,4,4.5,F_0,foil,0,0,N,133.5686,CR,new,CR,0.1174059951,CR-0,CR-0
127,4,15,154.8522,9.8958,threat,0,CANDLE,field_wild,indoor,SM,SMO_Lo,2.509,ap100,control-fmri,,3,2,3,3,4,4.5,TO_2,outdoor,2,0,Lo,142.8522,itemhit_lo,old,itemhit,-0.6441382703,itemhit_lo-2,itemhit-2
128,4,16,164.7762,11.6841,threat,0,ACCORDIAN,tennis_court,outdoor,SM,SMI_Hi,2.6049,ap100,control-fmri,,3,2,3,3,4,4.5,TI_2,indoor,2,0,Hi,152.7762,sourcemiss_hi,old,itemhit,-0.3544027602,sourcemiss_hi-2,itemhit-2
129,4,17,176.4888,10.9955,threat,0,NEEDLE,banquet_hall,indoor,H,HI_Hi,3.1334,ap100,control-fmri,,3,2,3,3,4,4.5,TI_4,indoor,4,0,Hi,164.4888,sourcehit,old,sourcehit,1.5136567583,sourcehit-4,sourcehit-4
130,4,18,187.5123,9.756,threat,0,BEAVER,fastfood_restaurant,outdoor,SM,SMI_Lo,2.4835,ap100,control-fmri,,3,2,3,3,4,4.5,TI_2,indoor,2,0,Lo,175.5123,itemhit_lo,old,itemhit,-0.7113161372,itemhit_lo-2,itemhit-2
131,4,19,197.297,10.3736,threat,0,PIANO,foil,foil,CR,CR,1.3587,ap100,control-fmri,,3,2,3,3,4,4.5,F_0,foil,0,0,N,185.297,CR,new,CR,-1.0833519455,CR-0,CR-0
132,4,20,207.6907,9.6999,threat,0,MAGICIAN,baggage_claim,outdoor,SM,SMI_Hi,3.1574,ap100,control-fmri,,3,2,3,3,4,4.5,TI_4,indoor,4,0,Hi,195.6907,sourcemiss_hi,old,itemhit,0.5927944657,sourcemiss_hi-4,itemhit-4
133,4,21,217.4221,9.1761,threat,0,MUFFIN,bedroom,indoor,H,HI_Hi,1.2913,ap100,control-fmri,,3,2,3,3,4,4.5,TI_4,indoor,4,0,Hi,205.4221,sourcehit,old,sourcehit,-1.3511404414,sourcehit-4,sourcehit-4
134,4,22,226.6269,10.7102,threat,0,BOOT,corral,outdoor,H,HO_Hi,1.9812,ap100,control-fmri,,3,2,3,3,4,4.5,TO_4,outdoor,4,0,Hi,214.6269,sourcehit,old,sourcehit,-0.2782217138,sourcehit-4,sourcehit-4
135,4,23,237.3653,9.991,threat,0,SWORD,assembly_line,foil,M,MI,2.5903,ap100,control-fmri,,3,2,3,3,4,4.5,TI_2,indoor,2,0,N,225.3653,M,old,M,0.7752129676,M-2,M-2
136,4,24,247.3843,9.377,threat,0,QUILL,foil,foil,CR,CR,1.9947,ap100,control-fmri,,3,2,3,3,4,4.5,F_0,foil,0,0,N,235.3843,CR,new,CR,0.367136279,CR-0,CR-0
137,4,25,256.7901,12.3299,threat,0,PEARL,limousine_interior,indoor,H,HI_Hi,2.2168,ap100,control-fmri,,3,2,3,3,4,4.5,TI_2,indoor,2,0,Hi,244.7901,sourcehit,old,sourcehit,0.0881787097,sourcehit-2,sourcehit-2
138,4,26,269.1484,9.0583,threat,0,MUSTARD,foil,foil,CR,CR,1.3469,ap100,control-fmri,,3,2,3,3,4,4.5,F_0,foil,0,0,N,257.1484,CR,new,CR,-1.1102635195,CR-0,CR-0
139,4,27,278.2349,11.6221,threat,0,CANE,foil,foil,CR,CR,2.3327,ap100,control-fmri,,3,2,3,3,4,4.5,F_0,foil,0,0,N,266.2349,CR,new,CR,1.1379932285,CR-0,CR-0
140,4,28,289.8857,9.9331,threat,0,CHEESE,ocean,outdoor,H,HO_Hi,1.8256,ap100,control-fmri,,3,2,3,3,4,4.5,TO_4,outdoor,4,0,Hi,277.8857,sourcehit,old,sourcehit,-0.5202077321,sourcehit-4,sourcehit-4
141,4,29,299.8469,9.1498,threat,0,BARREL,foil,foil,CR,CR,1.3282,ap100,control-fmri,,3,2,3,3,4,4.5,F_0,foil,0,0,N,287.8469,CR,new,CR,-1.1529115223,CR-0,CR-0
142,4,30,309.0248,10.553,threat,0,RASH,foil,outdoor,FA,FAO_Hi,2.983,ap100,control-fmri,,3,2,3,3,4,4.5,F_0,foil,0,0,Hi,297.0248,FA,new,FA,0.8587655003,FA-0,FA-0
143,4,31,319.6059,11.269,threat,0,NEST,amusement_park,outdoor,H,HO_Hi,1.8843,ap100,control-fmri,,3,2,3,3,4,4.5,TO_4,outdoor,4,0,Hi,307.6059,sourcehit,old,sourcehit,-0.4289186622,sourcehit-4,sourcehit-4
144,4,32,330.9031,9.4194,threat,0,WALNUT,foil,foil,CR,CR,1.3047,ap100,control-fmri,,3,2,3,3,4,4.5,F_0,foil,0,0,N,318.9031,CR,new,CR,-1.2065066061,CR-0,CR-0
145,4,33,340.3507,9.7637,threat,0,PASTE,candy_store,outdoor,SM,SMI_Hi,3.5037,ap100,control-fmri,,3,2,3,3,4,4.5,TI_4,indoor,4,0,Hi,328.3507,sourcemiss_hi,old,itemhit,1.1864856863,sourcemiss_hi-4,itemhit-4
146,4,34,350.143,9.2765,threat,0,PUMPKIN,foil,foil,CR,CR,1.87,ap100,control-fmri,,3,2,3,3,4,4.5,F_0,foil,0,0,N,338.143,CR,new,CR,0.0827402387,CR-0,CR-0
147,4,35,359.4477,9.5376,threat,0,ROPE,foil,foil,CR,CR,2.1051,ap100,control-fmri,,3,2,3,3,4,4.5,F_0,foil,0,0,N,347.4477,CR,new,CR,0.6189191406,CR-0,CR-0
148,4,36,369.0136,9.9245,threat,0,SNAIL,islet,outdoor,H,HO_Hi,1.1028,ap100,control-fmri,,3,2,3,3,4,4.5,TO_2,outdoor,2,0,Hi,357.0136,sourcehit,old,sourcehit,-1.6442918839,sourcehit-2,sourcehit-2
149,4,37,378.967,9.9127,threat,0,TIGER,outhouse,indoor,SM,SMO_Hi,2.7933,ap100,control-fmri,,3,2,3,3,4,4.5,TO_2,outdoor,2,0,Hi,366.967,sourcemiss_hi,old,itemhit,-0.0314127921,sourcemiss_hi-2,itemhit-2
150,4,38,388.9082,10.1079,threat,0,DETECTIVE,basilica,outdoor,H,HO_Hi,3.0112,ap100,control-fmri,,3,2,3,3,4,4.5,TO_2,outdoor,2,0,Hi,376.9082,sourcehit,old,sourcehit,1.3236137543,sourcehit-2,sourcehit-2
151,4,39,399.0445,10.1979,threat,0,SOAP,diner,indoor,H,HI_Hi,2.7203,ap100,control-fmri,,3,2,3,3,4,4.5,TI_2,indoor,2,0,Hi,387.0445,sourcehit,old,sourcehit,0.871211873,sourcehit-2,sourcehit-2
152,4,40,409.2713,11.187,threat,1,GORILLA,art_gallery,indoor,H,HI_Hi,1.5564,ap100,control-fmri,,3,2,3,3,4,4.5,TI_2,indoor,2,0,Hi,397.2713,sourcehit,old,sourcehit,-0.9388622059,sourcehit-2,sourcehit-2
153,4,41,420.4867,9.7555,threat,0,SNOW,auditorium,indoor,H,HI_Hi,3.6295,ap100,control-fmri,,3,2,3,3,4,4.5,TI_4,indoor,4,0,Hi,408.4867,sourcehit,old,sourcehit,2.2851815891,sourcehit-4,sourcehit-4
154,4,42,430.2707,10.0977,threat,0,DOUGHNUT,foil,foil,CR,CR,1.6393,ap100,control-fmri,,3,2,3,3,4,4.5,F_0,foil,0,0,N,418.2707,CR,new,CR,-0.4434038389,CR-0,CR-0
155,5,1,12.0045,11.9696,safe,0,HAMMER,lecture_room,foil,M,MI,1.7736,ap100,control-fmri,,3,2,3,3,4,4.5,TI_2,indoor,2,0,N,0.0045,M,old,M,-0.4171528324,M-2,M-2
156,5,2,24.003,9.3748,safe,0,BELL,formal_garden,outdoor,H,HO_Hi,2.8786,ap100,control-fmri,,3,2,3,3,4,4.5,TO_2,outdoor,2,0,Hi,12.003,sourcehit,old,sourcehit,1.1173968775,sourcehit-2,sourcehit-2
157,5,3,33.4053,9.1502,safe,0,SAIL,beauty_salon,outdoor,SM,SMI_Lo,2.924,ap100,control-fmri,,3,2,3,3,4,4.5,TI_2,indoor,2,0,Lo,21.4053,itemhit_lo,old,itemhit,0.449148584,itemhit_lo-2,itemhit-2
158,5,4,42.5836,11.6217,safe,0,STAPLER,cliff,outdoor,H,HO_Hi,1.3934,ap100,control-fmri,,3,2,3,3,4,4.5,TO_4,outdoor,4,0,Hi,30.5836,sourcehit,old,sourcehit,-1.1923565567,sourcehit-4,sourcehit-4
159,5,5,54.2331,12.3316,safe,0,OMELET,bookstore,foil,M,MI,2.0863,ap100,control-fmri,,3,2,3,3,4,4.5,TI_2,indoor,2,0,N,42.2331,M,old,M,0.0393829649,M-2,M-2
160,5,6,66.5923,9.8978,safe,0,SOUP,barn,foil,M,MI,1.1551,ap100,control-fmri,,3,2,3,3,4,4.5,TO_4,outdoor,4,0,N,54.5923,M,old,M,-1.3201505639,M-4,M-4
161,5,7,76.5183,9.4184,safe,0,NECKLACE,foil,outdoor,FA,FAO_Lo,2.475,ap100,control-fmri,,3,2,3,3,4,4.5,F_0,foil,0,0,Lo,64.5183,FA,new,FA,-0.4746020877,FA-0,FA-0
162,5,8,85.9644,9.9254,safe,0,ASPIRIN,foil,foil,CR,CR,1.2137,ap100,control-fmri,,3,2,3,3,4,4.5,F_0,foil,0,0,N,73.9644,CR,new,CR,-1.4140450156,CR-0,CR-0
163,5,9,95.9174,11.6826,safe,0,LIME,orchestra_pit,foil,M,MI,1.7795,ap100,control-fmri,,3,2,3,3,4,4.5,TI_4,indoor,4,0,N,83.9174,M,old,M,-0.4085389494,M-4,M-4
164,5,10,107.6284,9.2758,safe,0,SUBMARINE,gazebo,outdoor,H,HO_Hi,3.9149,ap100,control-fmri,,3,2,3,3,4,4.5,TO_2,outdoor,2,0,Hi,95.6284,sourcehit,old,sourcehit,2.72902998,sourcehit-2,sourcehit-2
165,5,11,116.9319,10.5561,safe,0,ARMOR,foil,foil,CR,CR,2.2237,ap100,control-fmri,,3,2,3,3,4,4.5,F_0,foil,0,0,N,104.9319,CR,new,CR,0.8894032655,CR-0,CR-0
166,5,12,127.5157,9.9908,safe,0,WORM,foil,foil,CR,CR,1.4535,ap100,control-fmri,,3,2,3,3,4,4.5,F_0,foil,0,0,N,115.5157,CR,new,CR,-0.867147097,CR-0,CR-0
167,5,13,137.5347,11.1876,safe,0,EAGLE,dock,outdoor,H,HO_Hi,1.7778,ap100,control-fmri,,3,2,3,3,4,4.5,TO_4,outdoor,4,0,Hi,125.5347,sourcehit,old,sourcehit,-0.5945453393,sourcehit-4,sourcehit-4
168,5,14,148.75,9.1164,safe,0,VELVET,foil,foil,CR,CR,1.9397,ap100,control-fmri,,3,2,3,3,4,4.5,F_0,foil,0,0,N,136.75,CR,new,CR,0.2417009766,CR-0,CR-0
169,5,15,157.8942,10.4727,safe,0,DAISY,foil,outdoor,FA,FAO_Lo,2.8762,ap100,control-fmri,,3,2,3,3,4,4.5,F_0,foil,0,0,Lo,145.8942,FA,new,FA,0.5784433381,FA-0,FA-0
170,5,16,168.3947,9.5386,safe,0,DRUM,bayou,outdoor,H,HO_Hi,1.9886,ap100,control-fmri,,3,2,3,3,4,4.5,TO_2,outdoor,2,0,Hi,156.3947,sourcehit,old,sourcehit,-0.2667133813,sourcehit-2,sourcehit-2
171,5,17,177.961,9.7567,safe,0,CRAB,crosswalk,indoor,SM,SMO_Lo,2.6573,ap100,control-fmri,,3,2,3,3,4,4.5,TO_2,outdoor,2,0,Lo,165.961,itemhit_lo,old,itemhit,-0.2534528715,itemhit_lo-2,itemhit-2
172,5,18,187.7455,10.9969,safe,0,LAMP,childs_room,indoor,H,HI_Hi,2.6267,ap100,control-fmri,,3,2,3,3,4,4.5,TI_4,indoor,4,0,Hi,175.7455,sourcehit,old,sourcehit,0.7256470188,sourcehit-4,sourcehit-4
173,5,19,198.7701,9.2572,safe,0,NET,foil,foil,CR,CR,1.8136,ap100,control-fmri,,3,2,3,3,4,4.5,F_0,foil,0,0,N,186.7701,CR,new,CR,-0.0458879623,CR-0,CR-0
174,5,20,208.0554,9.6331,safe,0,NIGHTGOWN,cloister,foil,M,MI,1.7787,ap100,control-fmri,,3,2,3,3,4,4.5,TI_4,indoor,4,0,N,196.0554,M,old,M,-0.4097069336,M-4,M-4
175,5,21,217.7164,10.1083,safe,0,EASEL,reception,indoor,H,HI_Hi,2.8934,ap100,control-fmri,,3,2,3,3,4,4.5,TI_2,indoor,2,0,Hi,205.7164,sourcehit,old,sourcehit,1.1404135425,sourcehit-2,sourcehit-2
176,5,22,227.8532,10.1991,safe,0,HARPOON,foil,foil,CR,CR,1.7672,ap100,control-fmri,,3,2,3,3,4,4.5,F_0,foil,0,0,N,215.8532,CR,new,CR,-0.1517097447,CR-0,CR-0
177,5,23,238.0803,9.1795,safe,0,ASPARAGUS,sauna,outdoor,SM,SMI_Hi,3.077,ap100,control-fmri,,3,2,3,3,4,4.5,TI_4,indoor,4,0,Hi,226.0803,sourcemiss_hi,old,itemhit,0.4549579826,sourcemiss_hi-4,itemhit-4
178,5,24,247.288,10.0978,safe,0,ROCKER,marsh,outdoor,H,HO_Hi,1.3097,ap100,control-fmri,,3,2,3,3,4,4.5,TO_4,outdoor,4,0,Hi,235.288,sourcehit,old,sourcehit,-1.3225251282,sourcehit-4,sourcehit-4
179,5,25,257.4113,9.3953,safe,0,HOSE,cabin,outdoor,H,HO_Hi,1.8939,ap100,control-fmri,,3,2,3,3,4,4.5,TO_4,outdoor,4,0,Hi,245.4113,sourcehit,old,sourcehit,-0.4139889336,sourcehit-4,sourcehit-4
180,5,26,266.8346,9.1273,safe,0,POSTER,kindergarden_classroom,indoor,H,HI_Hi,1.3851,ap100,control-fmri,,3,2,3,3,4,4.5,TI_4,indoor,4,0,Hi,254.8346,sourcehit,old,sourcehit,-1.2052645512,sourcehit-4,sourcehit-4
181,5,27,275.9899,9.8073,safe,0,CAMERA,catacomb,indoor,H,HI_Hi,1.8983,ap100,control-fmri,,3,2,3,3,4,4.5,TI_4,indoor,4,0,Hi,263.9899,sourcehit,old,sourcehit,-0.4071461413,sourcehit-4,sourcehit-4
182,5,28,285.8256,10.7107,safe,0,VINE,butchers_shop,indoor,H,HI_Hi,2.545,ap100,control-fmri,,3,2,3,3,4,4.5,TI_4,indoor,4,0,Hi,273.8256,sourcehit,old,sourcehit,0.5985888074,sourcehit-4,sourcehit-4
183,5,29,296.5637,9.9164,safe,0,RICE,greenhouse,foil,M,MI,1.4782,ap100,control-fmri,,3,2,3,3,4,4.5,TO_2,outdoor,2,0,N,284.5637,M,old,M,-0.8484309729,M-2,M-2
184,5,30,306.5111,9.9296,safe,0,KILT,mausoleum,outdoor,H,HO_Hi,2.2357,ap100,control-fmri,,3,2,3,3,4,4.5,TO_2,outdoor,2,0,Hi,294.5111,sourcehit,old,sourcehit,0.117571613,sourcehit-2,sourcehit-2
185,5,31,316.4688,10.6526,safe,0,LION,river,indoor,SM,SMO_Lo,2.3465,ap100,control-fmri,,3,2,3,3,4,4.5,TO_2,outdoor,2,0,Lo,304.4688,itemhit_lo,old,itemhit,-1.0722325204,itemhit_lo-2,itemhit-2
186,5,32,327.1492,11.3403,safe,0,BOAT,foil,outdoor,FA,FAO_Lo,3.1466,ap100,control-fmri,,3,2,3,3,4,4.5,F_0,foil,0,0,Lo,315.1492,FA,new,FA,1.2881728574,FA-0,FA-0
187,5,33,338.5171,9.1019,safe,0,ORNAMENT,herb_garden,outdoor,H,HO_Hi,2.3255,ap100,control-fmri,,3,2,3,3,4,4.5,TO_4,outdoor,4,0,Hi,326.5171,sourcehit,old,sourcehit,0.2572267829,sourcehit-4,sourcehit-4
188,5,34,347.6489,11.2662,safe,0,TRAY,foil,foil,CR,CR,1.317,ap100,control-fmri,,3,2,3,3,4,4.5,F_0,foil,0,0,N,335.6489,CR,new,CR,-1.1784547112,CR-0,CR-0
189,5,35,358.9427,9.756,safe,0,RAKE,foil,foil,CR,CR,1.0752,ap100,control-fmri,,3,2,3,3,4,4.5,F_0,foil,0,0,N,346.9427,CR,new,CR,-1.7299139136,CR-0,CR-0
190,5,36,368.7263,9.7646,safe,0,EYE,squash_court,foil,M,MI,1.4114,ap100,control-fmri,,3,2,3,3,4,4.5,TI_2,indoor,2,0,N,356.7263,M,old,M,-0.9459576478,M-2,M-2
191,5,37,378.5192,10.5698,safe,0,LAMB,foil,foil,CR,CR,1.5697,ap100,control-fmri,,3,2,3,3,4,4.5,F_0,foil,0,0,N,366.5192,CR,new,CR,-0.6021365126,CR-0,CR-0
192,5,38,389.1168,9.062,safe,0,DOLL,cockpit,indoor,H,HI_Lo,2.2217,ap100,control-fmri,,3,2,3,3,4,4.5,TI_2,indoor,2,0,Lo,377.1168,itemhit_lo,old,itemhit,-1.4010089046,itemhit_lo-2,itemhit-2
193,5,39,398.2067,10.3737,safe,0,HONEY,foil,foil,CR,CR,2.0367,ap100,control-fmri,,3,2,3,3,4,4.5,F_0,foil,0,0,N,386.2067,CR,new,CR,0.4629232372,CR-0,CR-0
194,5,40,408.6088,9.6896,safe,0,SCISSORS,dam,outdoor,H,HO_Hi,2.3666,ap100,control-fmri,,3,2,3,3,4,4.5,TO_4,outdoor,4,0,Hi,396.6088,sourcehit,old,sourcehit,0.3211446837,sourcehit-4,sourcehit-4
195,5,41,418.3261,9.6882,safe,0,LETTUCE,foil,foil,CR,CR,1.8737,ap100,control-fmri,,3,2,3,3,4,4.5,F_0,foil,0,0,N,406.3261,CR,new,CR,0.0911786136,CR-0,CR-0
196,5,42,428.0421,12.3251,safe,0,BIBLE,jacuzzi,indoor,H,HI_Lo,2.9469,ap100,control-fmri,,3,2,3,3,4,4.5,TI_2,indoor,2,0,Lo,416.0421,itemhit_lo,old,itemhit,0.5094769429,itemhit_lo-2,itemhit-2
197,6,1,12.0066,11.9658,threat,0,WHIP,pond,outdoor,H,HO_Hi,2.6281,ap100,control-fmri,,3,2,3,3,4,4.5,TO_2,outdoor,2,0,Hi,0.0066,sourcehit,old,sourcehit,0.7278242709,sourcehit-2,sourcehit-2
198,6,2,24.0016,9.8965,threat,0,CUCUMBER,shoe_shop,outdoor,SM,SMI_Lo,3.235,ap100,control-fmri,,3,2,3,3,4,4.5,TI_4,indoor,4,0,Lo,12.0016,itemhit_lo,old,itemhit,1.2684551181,itemhit_lo-4,itemhit-4
199,6,3,33.9255,11.1899,threat,1,PIE,rock_arch,outdoor,H,HO_Lo,3.3243,ap100,control-fmri,,3,2,3,3,4,4.5,TO_2,outdoor,2,0,Lo,21.9255,itemhit_lo,old,itemhit,1.5037093738,itemhit_lo-2,itemhit-2
200,6,4,45.1438,9.6892,threat,0,PIGEON,lobby,indoor,H,HI_Hi,1.3259,ap100,control-fmri,,3,2,3,3,4,4.5,TI_4,indoor,4,0,Hi,33.1438,sourcehit,old,sourcehit,-1.2973312112,sourcehit-4,sourcehit-4
201,6,5,54.8609,9.1188,threat,1,ARROW,rope_bridge,outdoor,H,HO_Hi,1.5589,ap100,control-fmri,,3,2,3,3,4,4.5,TO_2,outdoor,2,0,Hi,42.8609,sourcehit,old,sourcehit,-0.9349742557,sourcehit-2,sourcehit-2
202,6,6,64.0076,11.2666,threat,0,MOTH,foil,foil,CR,CR,1.2887,ap100,control-fmri,,3,2,3,3,4,4.5,F_0,foil,0,0,N,52.0076,CR,new,CR,-1.2429968759,CR-0,CR-0
203,6,7,75.3026,9.9907,threat,0,DAMSEL,bathroom,indoor,H,HI_Hi,1.6979,ap100,control-fmri,,3,2,3,3,4,4.5,TI_2,indoor,2,0,Hi,63.3026,sourcehit,old,sourcehit,-0.7188042266,sourcehit-2,sourcehit-2
204,6,8,85.3207,9.6369,threat,0,DOVE,brewery,outdoor,SM,SMI_Lo,3.44,ap100,control-fmri,,3,2,3,3,4,4.5,TI_2,indoor,2,0,Lo,73.3207,itemhit_lo,old,itemhit,1.8085124799,itemhit_lo-2,itemhit-2
205,6,9,94.9854,9.4185,threat,0,TABLE,escalator,indoor,H,HI_Hi,1.3533,ap100,control-fmri,,3,2,3,3,4,4.5,TI_4,indoor,4,0,Hi,82.9854,sourcehit,old,sourcehit,-1.2547192773,sourcehit-4,sourcehit-4
206,6,10,104.4323,10.1999,threat,0,MOUSE,lift_bridge,foil,M,MI,2.0165,ap100,control-fmri,,3,2,3,3,4,4.5,TO_2,outdoor,2,0,N,92.4323,M,old,M,-0.0625236505,M-2,M-2
207,6,11,114.6601,9.9241,threat,0,RUDDER,foil,foil,CR,CR,1.4632,ap100,control-fmri,,3,2,3,3,4,4.5,F_0,foil,0,0,N,102.6601,CR,new,CR,-0.8450248709,CR-0,CR-0
208,6,12,124.6122,9.6873,threat,0,SALAD,foil,foil,CR,CR,1.9675,ap100,control-fmri,,3,2,3,3,4,4.5,F_0,foil,0,0,N,112.6122,CR,new,CR,0.3051028203,CR-0,CR-0
209,6,13,134.3279,10.6533,threat,0,MUSSEL,foil,foil,CR,CR,2.8193,ap100,control-fmri,,3,2,3,3,4,4.5,F_0,foil,0,0,N,122.3279,CR,new,CR,2.2477535588,CR-0,CR-0
210,6,14,145.0091,9.1265,threat,0,GLOVE,florist_shop,foil,M,MI,2.0201,ap100,control-fmri,,3,2,3,3,4,4.5,TI_4,indoor,4,0,N,133.0091,M,old,M,-0.0572677219,M-4,M-4
211,6,15,154.1634,9.3926,threat,0,STORK,foil,foil,CR,CR,2.1122,ap100,control-fmri,,3,2,3,3,4,4.5,F_0,foil,0,0,N,142.1634,CR,new,CR,0.6351116978,CR-0,CR-0
212,6,16,163.5845,9.9137,threat,0,TEETH,drugstore,foil,M,MI,2.2037,ap100,control-fmri,,3,2,3,3,4,4.5,TI_2,indoor,2,0,N,151.5845,M,old,M,0.2107846362,M-2,M-2
213,6,17,173.5261,10.3737,threat,0,MEDICINE,foil,indoor,FA,FAI_Lo,2.3721,ap100,control-fmri,,3,2,3,3,4,4.5,F_0,foil,0,0,Lo,161.5261,FA,new,FA,-0.7446877665,FA-0,FA-0
214,6,18,183.9278,9.8092,threat,0,CANNON,foil,outdoor,FA,FAO_Lo,2.6418,ap100,control-fmri,,3,2,3,3,4,4.5,F_0,foil,0,0,Lo,171.9278,FA,new,FA,-0.0367955647,FA-0,FA-0
215,6,19,193.7656,10.7112,threat,0,FORK,pantry,indoor,H,HI_Lo,2.891,ap100,control-fmri,,3,2,3,3,4,4.5,TI_2,indoor,2,0,Lo,181.7656,itemhit_lo,old,itemhit,0.3622125209,itemhit_lo-2,itemhit-2
216,6,20,204.506,9.1003,threat,0,ICICLE,galley,foil,M,MI,1.8799,ap100,control-fmri,,3,2,3,3,4,4.5,TI_2,indoor,2,0,N,192.506,M,old,M,-0.2619569409,M-2,M-2
217,6,21,213.6343,12.3314,threat,0,SQUIRREL,gas_station,outdoor,H,HO_Lo,2.1325,ap100,control-fmri,,3,2,3,3,4,4.5,TO_4,outdoor,4,0,Lo,201.6343,itemhit_lo,old,itemhit,-1.6359997176,itemhit_lo-4,itemhit-4
218,6,22,225.9944,9.756,threat,0,MOON,foil,foil,CR,CR,1.2759,ap100,control-fmri,,3,2,3,3,4,4.5,F_0,foil,0,0,N,213.9944,CR,new,CR,-1.2721890918,CR-0,CR-0
219,6,23,235.7786,9.149,threat,0,JACKET,amphitheater,foil,M,MI,1.3636,ap100,control-fmri,,3,2,3,3,4,4.5,TO_2,outdoor,2,0,N,223.7786,M,old,M,-1.0157446997,M-2,M-2
220,6,24,244.9556,10.4711,threat,0,SOCK,cubicle,foil,M,MI,1.8809,ap100,control-fmri,,3,2,3,3,4,4.5,TI_4,indoor,4,0,N,232.9556,M,old,M,-0.2604969608,M-4,M-4
221,6,25,255.4555,9.5375,threat,0,MONKEY,foil,foil,CR,CR,2.3856,ap100,control-fmri,,3,2,3,3,4,4.5,F_0,foil,0,0,N,243.4555,CR,new,CR,1.258639183,CR-0,CR-0
222,6,26,265.0215,9.2539,threat,0,BATON,burial_chamber,indoor,H,HI_Lo,2.698,ap100,control-fmri,,3,2,3,3,4,4.5,TI_2,indoor,2,0,Lo,253.0215,itemhit_lo,old,itemhit,-0.146231727,itemhit_lo-2,itemhit-2
223,6,27,274.3032,10.5717,threat,0,BRACELET,office_building,outdoor,H,HO_Hi,1.428,ap100,control-fmri,,3,2,3,3,4,4.5,TO_2,outdoor,2,0,Hi,262.3032,sourcehit,old,sourcehit,-1.1385473264,sourcehit-2,sourcehit-2
224,6,28,284.9035,9.931,threat,0,ENVELOPE,beach,indoor,SM,SMO_Hi,1.8745,ap100,control-fmri,,3,2,3,3,4,4.5,TO_4,outdoor,4,0,Hi,272.9035,sourcemiss_hi,old,itemhit,-1.6065889209,sourcemiss_hi-4,itemhit-4
225,6,29,294.8627,10.9992,threat,0,BOWL,cafeteria,foil,M,MI,1.4337,ap100,control-fmri,,3,2,3,3,4,4.5,TI_4,indoor,4,0,N,282.8627,M,old,M,-0.9134000902,M-4,M-4
226,6,30,305.8902,9.7559,threat,0,BASKET,nursery,indoor,H,HI_Hi,2.4222,ap100,control-fmri,,3,2,3,3,4,4.5,TI_4,indoor,4,0,Hi,293.8902,sourcehit,old,sourcehit,0.4076126953,sourcehit-4,sourcehit-4
227,6,31,315.6749,11.682,threat,0,RABBIT,playground,indoor,SM,SMO_Lo,3.0064,ap100,control-fmri,,3,2,3,3,4,4.5,TO_2,outdoor,2,0,Lo,303.6749,itemhit_lo,old,itemhit,0.6662252991,itemhit_lo-2,itemhit-2
228,6,32,327.385,11.3367,threat,0,DUST,foil,foil,CR,CR,1.3886,ap100,control-fmri,,3,2,3,3,4,4.5,F_0,foil,0,0,N,315.385,CR,new,CR,-1.0151607539,CR-0,CR-0
229,6,33,338.75,12.3259,threat,0,TOWEL,rice_paddy,outdoor,H,HO_Hi,2.9159,ap100,control-fmri,,3,2,3,3,4,4.5,TO_4,outdoor,4,0,Hi,326.75,sourcehit,old,sourcehit,1.175405094,sourcehit-4,sourcehit-4
230,6,34,351.1041,11.6219,threat,0,CEREAL,field_cultivated,outdoor,H,HO_Hi,3.3837,ap100,control-fmri,,3,2,3,3,4,4.5,TO_4,outdoor,4,0,Hi,339.1041,sourcehit,old,sourcehit,1.9029183289,sourcehit-4,sourcehit-4
231,6,35,362.7542,9.7648,threat,0,HAM,foil,foil,CR,CR,1.4962,ap100,control-fmri,,3,2,3,3,4,4.5,F_0,foil,0,0,N,350.7542,CR,new,CR,-0.7697636894,CR-0,CR-0
232,6,36,372.5479,9.0595,threat,0,TELEGRAPH,pasture,outdoor,H,HO_Hi,2.3408,ap100,control-fmri,,3,2,3,3,4,4.5,TO_4,outdoor,4,0,Hi,360.5479,sourcehit,old,sourcehit,0.2810210379,sourcehit-4,sourcehit-4
233,6,37,381.6358,10.0958,threat,0,CAMEL,boathouse,outdoor,H,HO_Lo,2.7865,ap100,control-fmri,,3,2,3,3,4,4.5,TO_4,outdoor,4,0,Lo,369.6358,itemhit_lo,old,itemhit,0.0869149877,itemhit_lo-4,itemhit-4
234,6,38,391.7511,9.2857,threat,0,BUCKET,foil,foil,CR,CR,3.1499,ap100,control-fmri,,3,2,3,3,4,4.5,F_0,foil,0,0,N,379.7511,CR,new,CR,3.0017337585,CR-0,CR-0
235,6,39,401.0679,10.5507,threat,0,FIRE,foil,foil,CR,CR,1.6162,ap100,control-fmri,,3,2,3,3,4,4.5,F_0,foil,0,0,N,389.0679,CR,new,CR,-0.496086666,CR-0,CR-0
236,6,40,411.6465,9.3776,threat,0,HAWK,corn_field,outdoor,H,HO_Hi,1.7369,ap100,control-fmri,,3,2,3,3,4,4.5,TO_4,outdoor,4,0,Hi,399.6465,sourcehit,old,sourcehit,-0.658152204,sourcehit-4,sourcehit-4
237,6,41,421.0521,10.1082,threat,0,TORNADO,restaurant_kitchen,indoor,H,HI_Hi,1.5311,ap100,control-fmri,,3,2,3,3,4,4.5,TI_2,indoor,2,0,Hi,409.0521,sourcehit,old,sourcehit,-0.9782082616,sourcehit-2,sourcehit-2
238,6,42,431.1888,9.1796,threat,0,HOOK,foil,foil,CR,CR,1.94,ap100,control-fmri,,3,2,3,3,4,4.5,F_0,foil,0,0,N,419.1888,CR,new,CR,0.2423851691,CR-0,CR-0
239,1,1,12.0219,11.1963,safe,0,FORK,engine_room,foil,M,MI,1.1587,ap101,control-fmri,,2,5,6,2,2,8.5,TI_2,indoor,2,0,N,0.0219,M,old,M,-2.3701161861,M-2,M-2
240,1,2,23.238,9.3996,safe,0,BEAVER,butte,indoor,SM,SMO_Hi,2.9343,ap101,control-fmri,,2,5,6,2,2,8.5,TO_2,outdoor,2,0,Hi,11.238,sourcemiss_hi,old,itemhit,-0.4821249617,sourcemiss_hi-2,itemhit-2
241,1,3,32.6724,9.1193,safe,0,BUTTER,fire_station,foil,M,MI,2.4214,ap101,control-fmri,,2,5,6,2,2,8.5,TO_2,outdoor,2,0,N,20.6724,M,old,M,0.0341756584,M-2,M-2
242,1,4,41.8185,9.637,safe,0,HIGHWAY,hotel_room,outdoor,SM,SMI_Hi,3.8471,ap101,control-fmri,,2,5,6,2,2,8.5,TI_2,indoor,2,0,Hi,29.8185,sourcemiss_hi,old,itemhit,1.2368559296,sourcemiss_hi-2,itemhit-2
243,1,5,51.4817,9.6897,safe,0,ARROW,foil,foil,CR,CR,1.6788,ap101,control-fmri,,2,5,6,2,2,8.5,F_0,foil,0,0,N,39.4817,CR,new,CR,-1.014294839,CR-0,CR-0
244,1,6,61.1984,9.9141,safe,0,ACROBAT,palace,outdoor,H,HO_Hi,2.6741,ap101,control-fmri,,2,5,6,2,2,8.5,TO_4,outdoor,4,0,Hi,49.1984,sourcehit,old,sourcehit,1.1905870175,sourcehit-4,sourcehit-4
245,1,7,71.139,9.8983,safe,0,TULIP,foil,foil,CR,CR,1.4395,ap101,control-fmri,,2,5,6,2,2,8.5,F_0,foil,0,0,N,59.139,CR,new,CR,-1.4417724678,CR-0,CR-0
246,1,8,81.0637,9.8105,safe,0,STOOL,foil,foil,CR,CR,1.6394,ap101,control-fmri,,2,5,6,2,2,8.5,F_0,foil,0,0,N,69.0637,CR,new,CR,-1.0846776998,CR-0,CR-0
247,1,9,90.9012,9.1822,safe,0,BROOM,synagogue,indoor,H,HI_Hi,3.0818,ap101,control-fmri,,2,5,6,2,2,8.5,TI_2,indoor,2,0,Hi,78.9012,sourcehit,old,sourcehit,1.9725138856,sourcehit-2,sourcehit-2
248,1,10,100.11,10.0979,safe,0,GARBAGE,bistro,indoor,H,HI_Hi,2.9308,ap101,control-fmri,,2,5,6,2,2,8.5,TI_4,indoor,4,0,Hi,88.11,sourcehit,old,sourcehit,1.6829113418,sourcehit-4,sourcehit-4
249,1,11,110.2346,9.151,safe,0,QUILT,moat,outdoor,H,HO_Hi,2.703,ap101,control-fmri,,2,5,6,2,2,8.5,TO_2,outdoor,2,0,Hi,98.2346,sourcehit,old,sourcehit,1.2460142594,sourcehit-2,sourcehit-2
250,1,12,119.4122,10.6552,safe,0,PENCIL,butchers_shop,foil,M,MI,1.9375,ap101,control-fmri,,2,5,6,2,2,8.5,TI_2,indoor,2,0,N,107.4122,M,old,M,-0.8872124968,M-2,M-2
251,1,13,130.0945,11.6222,safe,0,PAN,banquet_hall,indoor,H,HI_Hi,2.2617,ap101,control-fmri,,2,5,6,2,2,8.5,TI_4,indoor,4,0,Hi,118.0945,sourcehit,old,sourcehit,0.3996460306,sourcehit-4,sourcehit-4
252,1,14,141.7433,11.9457,safe,0,WRENCH,bazaar,indoor,H,HI_Hi,2.0803,ap101,control-fmri,,2,5,6,2,2,8.5,TI_4,indoor,4,0,Hi,129.7433,sourcehit,old,sourcehit,0.0517393986,sourcehit-4,sourcehit-4
253,1,15,153.7164,11.6825,safe,0,PEDAL,foil,foil,CR,CR,1.8981,ap101,control-fmri,,2,5,6,2,2,8.5,F_0,foil,0,0,N,141.7164,CR,new,CR,-0.6225445507,CR-0,CR-0
254,1,16,165.4256,9.9265,safe,0,EMPEROR,art_gallery,indoor,H,HI_Hi,1.9797,ap101,control-fmri,,2,5,6,2,2,8.5,TI_4,indoor,4,0,Hi,153.4256,sourcehit,old,sourcehit,-0.141201104,sourcehit-4,sourcehit-4
255,1,17,175.3789,9.5395,safe,0,BALLOON,foil,foil,CR,CR,1.9446,ap101,control-fmri,,2,5,6,2,2,8.5,F_0,foil,0,0,N,163.3789,CR,new,CR,-0.5394784841,CR-0,CR-0
256,1,18,184.9458,9.6907,safe,0,DRUG,foil,foil,CR,CR,1.2609,ap101,control-fmri,,2,5,6,2,2,8.5,F_0,foil,0,0,N,172.9458,CR,new,CR,-1.7608176182,CR-0,CR-0
257,1,19,194.6632,9.1191,safe,0,BANANA,kindergarden_classroom,indoor,H,HI_Hi,1.9909,ap101,control-fmri,,2,5,6,2,2,8.5,TI_4,indoor,4,0,Hi,182.6632,sourcehit,old,sourcehit,-0.1197206504,sourcehit-4,sourcehit-4
258,1,20,203.809,9.422,safe,0,KEG,foil,foil,CR,CR,1.3543,ap101,control-fmri,,2,5,6,2,2,8.5,F_0,foil,0,0,N,191.809,CR,new,CR,-1.5939709382,CR-0,CR-0
259,1,21,213.2579,9.1039,safe,0,MUSTARD,foil,foil,CR,CR,1.6973,ap101,control-fmri,,2,5,6,2,2,8.5,F_0,foil,0,0,N,201.2579,CR,new,CR,-0.9812470491,CR-0,CR-0
260,1,22,222.3886,9.9914,safe,0,RING,balcony,outdoor,H,HO_Hi,2.6451,ap101,control-fmri,,2,5,6,2,2,8.5,TO_2,outdoor,2,0,Hi,210.3886,sourcehit,old,sourcehit,1.134967986,sourcehit-2,sourcehit-2
261,1,23,232.4068,12.3266,safe,0,PIE,candy_store,indoor,H,HI_Hi,2.0738,ap101,control-fmri,,2,5,6,2,2,8.5,TI_4,indoor,4,0,Hi,220.4068,sourcehit,old,sourcehit,0.039273064,sourcehit-4,sourcehit-4
262,1,24,244.7607,10.2008,safe,0,OMELET,orchestra_pit,indoor,H,HI_Hi,3.7207,ap101,control-fmri,,2,5,6,2,2,8.5,TI_2,indoor,2,0,Hi,232.7607,sourcehit,old,sourcehit,3.197858688,sourcehit-2,sourcehit-2
263,1,25,254.9884,9.3767,safe,0,VODKA,foil,foil,CR,CR,1.6041,ap101,control-fmri,,2,5,6,2,2,8.5,F_0,foil,0,0,N,242.9884,CR,new,CR,-1.1477364557,CR-0,CR-0
264,1,26,264.3919,9.2565,safe,0,BENCH,riding_arena,outdoor,SM,SMI_Hi,3.0766,ap101,control-fmri,,2,5,6,2,2,8.5,TI_2,indoor,2,0,Hi,252.3919,sourcemiss_hi,old,itemhit,-0.214146236,sourcemiss_hi-2,itemhit-2
265,1,27,273.6759,9.9333,safe,0,SADDLE,bayou,outdoor,H,HO_Hi,2.164,ap101,control-fmri,,2,5,6,2,2,8.5,TO_4,outdoor,4,0,Hi,261.6759,sourcehit,old,sourcehit,0.2122674311,sourcehit-4,sourcehit-4
266,1,28,283.6368,10.998,safe,0,ARMOR,ruin,outdoor,H,HO_Hi,1.8995,ap101,control-fmri,,2,5,6,2,2,8.5,TO_2,outdoor,2,0,Hi,271.6368,sourcehit,old,sourcehit,-0.2950164948,sourcehit-2,sourcehit-2
267,1,29,294.6615,10.4739,safe,0,BONE,patio,foil,M,MI,2.8423,ap101,control-fmri,,2,5,6,2,2,8.5,TO_2,outdoor,2,0,N,282.6615,M,old,M,0.8356062733,M-2,M-2
268,1,30,305.1624,9.7565,safe,0,FIRE,fishpond,outdoor,H,HO_Hi,1.3363,ap101,control-fmri,,2,5,6,2,2,8.5,TO_4,outdoor,4,0,Hi,293.1624,sourcehit,old,sourcehit,-1.3751764459,sourcehit-4,sourcehit-4
269,1,31,314.9459,10.3766,safe,0,CUCUMBER,electrical_substation,outdoor,H,HO_Hi,3.0786,ap101,control-fmri,,2,5,6,2,2,8.5,TO_2,outdoor,2,0,Hi,302.9459,sourcehit,old,sourcehit,1.9663766131,sourcehit-2,sourcehit-2
270,1,32,325.3493,10.1091,safe,0,ANCHOR,bullring,outdoor,H,HO_Hi,1.802,ap101,control-fmri,,2,5,6,2,2,8.5,TO_4,outdoor,4,0,Hi,313.3493,sourcehit,old,sourcehit,-0.4820115147,sourcehit-4,sourcehit-4
271,1,33,335.4859,9.0594,safe,0,BAYONET,carrousel,outdoor,H,HO_Hi,1.6072,ap101,control-fmri,,2,5,6,2,2,8.5,TO_4,outdoor,4,0,Hi,323.4859,sourcehit,old,sourcehit,-0.8556179751,sourcehit-4,sourcehit-4
272,1,34,344.572,11.3402,safe,0,ICICLE,foil,foil,CR,CR,1.6442,ap101,control-fmri,,2,5,6,2,2,8.5,F_0,foil,0,0,N,332.572,CR,new,CR,-1.076103138,CR-0,CR-0
273,1,35,355.939,12.3314,safe,0,PEARL,parking_garage,foil,M,MI,2.2172,ap101,control-fmri,,2,5,6,2,2,8.5,TI_2,indoor,2,0,N,343.939,M,old,M,-0.3546390993,M-2,M-2
274,1,36,368.2974,9.7654,safe,0,SHELL,foil,foil,CR,CR,2.4091,ap101,control-fmri,,2,5,6,2,2,8.5,F_0,foil,0,0,N,356.2974,CR,new,CR,0.2902889983,CR-0,CR-0
275,1,37,378.0895,10.5551,safe,0,PUMPKIN,foil,foil,CR,CR,1.8333,ap101,control-fmri,,2,5,6,2,2,8.5,F_0,foil,0,0,N,366.0895,CR,new,CR,-0.7383011339,CR-0,CR-0
276,1,38,388.6713,9.7577,safe,0,YACHT,field_wild,indoor,SM,SMO_Lo,3.5773,ap101,control-fmri,,2,5,6,2,2,8.5,TO_4,outdoor,4,0,Lo,376.6713,itemhit_lo,old,itemhit,0.7368581586,itemhit_lo-4,itemhit-4
277,1,39,398.4557,9.2794,safe,0,VELVET,dining_room,indoor,H,HI_Hi,1.8601,ap101,control-fmri,,2,5,6,2,2,8.5,TI_4,indoor,4,0,Hi,386.4557,sourcehit,old,sourcehit,-0.3705816618,sourcehit-4,sourcehit-4
278,1,40,407.762,11.2677,safe,0,BRACELET,foil,foil,CR,CR,1.4723,ap101,control-fmri,,2,5,6,2,2,8.5,F_0,foil,0,0,N,395.762,CR,new,CR,-1.3831796294,CR-0,CR-0
279,1,41,419.2435,10.5272,safe,0,PLUG,foil,foil,CR,CR,1.8211,ap101,control-fmri,,2,5,6,2,2,8.5,F_0,foil,0,0,N,407.2435,CR,new,CR,-0.7600948116,CR-0,CR-0
280,1,42,429.7974,10.5712,safe,0,CRADLE,crosswalk,outdoor,H,HO_Hi,1.5418,ap101,control-fmri,,2,5,6,2,2,8.5,TO_4,outdoor,4,0,Hi,417.7974,sourcehit,old,sourcehit,-0.9810484808,sourcehit-4,sourcehit-4
281,2,1,12.0045,9.8338,threat,0,SALAD,athletic_field,foil,M,MI,1.4568,ap101,control-fmri,,2,5,6,2,2,8.5,TO_4,outdoor,4,0,N,0.0045,M,old,M,-1.8025075705,M-4,M-4
282,2,2,21.868,9.8962,threat,0,PYTHON,stage,outdoor,SM,SMI_Lo,2.6637,ap101,control-fmri,,2,5,6,2,2,8.5,TI_2,indoor,2,0,Lo,9.868,itemhit_lo,old,itemhit,-1.1673802423,itemhit_lo-2,itemhit-2
283,2,3,31.7932,9.4176,threat,0,GOAT,cloister,outdoor,SM,SMI_Hi,3.0355,ap101,control-fmri,,2,5,6,2,2,8.5,TI_2,indoor,2,0,Hi,19.7932,sourcemiss_hi,old,itemhit,-0.2915455728,sourcemiss_hi-2,itemhit-2
284,2,4,41.2394,9.7629,threat,0,ACCORDIAN,basketball_court,outdoor,H,HO_Hi,1.8376,ap101,control-fmri,,2,5,6,2,2,8.5,TO_4,outdoor,4,0,Hi,29.2394,sourcehit,old,sourcehit,-0.4137343587,sourcehit-4,sourcehit-4
285,2,5,51.0307,10.4732,threat,0,NAPKIN,foil,foil,CR,CR,1.6838,ap101,control-fmri,,2,5,6,2,2,8.5,F_0,foil,0,0,N,39.0307,CR,new,CR,-1.0053630039,CR-0,CR-0
286,2,6,61.533,9.1472,threat,0,MAP,barn,outdoor,H,HO_Hi,2.65,ap101,control-fmri,,2,5,6,2,2,8.5,TO_2,outdoor,2,0,Hi,49.533,sourcehit,old,sourcehit,1.1443656844,sourcehit-2,sourcehit-2
287,2,7,70.7087,10.5529,threat,0,SHOWER,throne_room,foil,M,MI,2.266,ap101,control-fmri,,2,5,6,2,2,8.5,TI_4,indoor,4,0,N,58.7087,M,old,M,-0.2617196078,M-4,M-4
288,2,8,81.29,9.6883,threat,0,WHEAT,foil,foil,CR,CR,2.7447,ap101,control-fmri,,2,5,6,2,2,8.5,F_0,foil,0,0,N,69.29,CR,new,CR,0.8897937715,CR-0,CR-0
289,2,9,91.0068,9.1792,threat,0,WALLET,foil,foil,CR,CR,2.486,ap101,control-fmri,,2,5,6,2,2,8.5,F_0,foil,0,0,N,79.0068,CR,new,CR,0.4276606224,CR-0,CR-0
290,2,10,100.2145,10.3739,threat,0,FLASK,bathroom,indoor,H,HI_Hi,2.0188,ap101,control-fmri,,2,5,6,2,2,8.5,TI_2,indoor,2,0,Hi,88.2145,sourcehit,old,sourcehit,-0.0662113063,sourcehit-2,sourcehit-2
291,2,11,110.6176,9.1256,threat,0,STORK,bridge,outdoor,H,HO_Hi,1.6312,ap101,control-fmri,,2,5,6,2,2,8.5,TO_4,outdoor,4,0,Hi,98.6176,sourcehit,old,sourcehit,-0.8095884317,sourcehit-4,sourcehit-4
292,2,12,119.7725,9.7528,threat,0,TEETH,foil,foil,CR,CR,1.6925,ap101,control-fmri,,2,5,6,2,2,8.5,F_0,foil,0,0,N,107.7725,CR,new,CR,-0.9898216108,CR-0,CR-0
293,2,13,129.5542,9.9232,threat,0,PIGEON,lift_bridge,outdoor,H,HO_Hi,1.2384,ap101,control-fmri,,2,5,6,2,2,8.5,TO_4,outdoor,4,0,Hi,117.5542,sourcehit,old,sourcehit,-1.5629386249,sourcehit-4,sourcehit-4
294,2,14,139.5063,12.3302,threat,0,HOOK,foil,foil,CR,CR,1.6365,ap101,control-fmri,,2,5,6,2,2,8.5,F_0,foil,0,0,N,127.5063,CR,new,CR,-1.0898581641,CR-0,CR-0
295,2,15,151.8663,10.1072,threat,0,HAWK,cottage_garden,outdoor,H,HO_Hi,2.8894,ap101,control-fmri,,2,5,6,2,2,8.5,TO_2,outdoor,2,0,Hi,139.8663,sourcehit,old,sourcehit,1.6035103795,sourcehit-2,sourcehit-2
296,2,16,162.0026,11.3369,threat,0,WAND,car_interior,indoor,H,HI_Hi,1.9029,ap101,control-fmri,,2,5,6,2,2,8.5,TI_2,indoor,2,0,Hi,150.0026,sourcehit,old,sourcehit,-0.2884956428,sourcehit-2,sourcehit-2
297,2,17,173.3685,11.9433,threat,0,PASTE,locker_room,foil,M,MI,2.0528,ap101,control-fmri,,2,5,6,2,2,8.5,TI_2,indoor,2,0,N,161.3685,M,old,M,-0.667671157,M-2,M-2
298,2,18,185.3416,10.7092,threat,0,ORCHID,foil,foil,CR,CR,2.9574,ap101,control-fmri,,2,5,6,2,2,8.5,F_0,foil,0,0,N,173.3416,CR,new,CR,1.2697540374,CR-0,CR-0
299,2,19,196.0798,11.6218,threat,0,TOBACCO,supermarket,indoor,H,HI_Hi,2.5655,ap101,control-fmri,,2,5,6,2,2,8.5,TI_4,indoor,4,0,Hi,184.0798,sourcehit,old,sourcehit,0.9823033338,sourcehit-4,sourcehit-4
300,2,20,207.7316,11.679,threat,0,TROPHY,labyrinth,outdoor,H,HO_Hi,2.5659,ap101,control-fmri,,2,5,6,2,2,8.5,TO_2,outdoor,2,0,Hi,195.7316,sourcehit,old,sourcehit,0.9830704928,sourcehit-2,sourcehit-2
301,2,21,219.4395,11.1885,threat,0,SCAB,foil,foil,CR,CR,1.6326,ap101,control-fmri,,2,5,6,2,2,8.5,F_0,foil,0,0,N,207.4395,CR,new,CR,-1.0968249955,CR-0,CR-0
302,2,22,230.6571,10.6523,threat,0,CLARINET,chalet,outdoor,H,HO_Hi,1.9125,ap101,control-fmri,,2,5,6,2,2,8.5,TO_4,outdoor,4,0,Hi,218.6571,sourcehit,old,sourcehit,-0.2700838254,sourcehit-4,sourcehit-4
303,2,23,241.3305,11.2751,threat,0,HARPOON,foil,foil,CR,CR,2.3716,ap101,control-fmri,,2,5,6,2,2,8.5,F_0,foil,0,0,N,229.3305,CR,new,CR,0.2233002349,CR-0,CR-0
304,2,24,252.6268,11.0038,threat,0,POTATO,burial_chamber,indoor,H,HI_Hi,3.2708,ap101,control-fmri,,2,5,6,2,2,8.5,TI_4,indoor,4,0,Hi,240.6268,sourcehit,old,sourcehit,2.3349965396,sourcehit-4,sourcehit-4
305,2,25,263.6634,9.9281,threat,0,ANT,jewelry_shop,outdoor,SM,SMI_Hi,3.4477,ap101,control-fmri,,2,5,6,2,2,8.5,TI_2,indoor,2,0,Hi,251.6634,sourcemiss_hi,old,itemhit,0.4847076299,sourcemiss_hi-2,itemhit-2
306,2,26,273.6214,9.1017,threat,0,TYPEWRITER,dock,outdoor,H,HO_Hi,1.7902,ap101,control-fmri,,2,5,6,2,2,8.5,TO_2,outdoor,2,0,Hi,261.6214,sourcehit,old,sourcehit,-0.5046427069,sourcehit-2,sourcehit-2
307,2,27,282.7523,9.6343,threat,0,TOWEL,amusement_arcade,foil,M,MI,1.6999,ap101,control-fmri,,2,5,6,2,2,8.5,TI_2,indoor,2,0,N,270.7523,M,old,M,-1.3396237918,M-2,M-2
308,2,28,292.4159,10.5687,threat,0,NEST,cockpit,indoor,H,HI_Lo,3.576,ap101,control-fmri,,2,5,6,2,2,8.5,TI_4,indoor,4,0,Lo,280.4159,itemhit_lo,old,itemhit,0.7341485374,itemhit_lo-4,itemhit-4
309,2,29,303.0144,9.9891,threat,0,MONKEY,forest_path,outdoor,H,HO_Hi,2.9055,ap101,control-fmri,,2,5,6,2,2,8.5,TO_4,outdoor,4,0,Hi,291.0144,sourcehit,old,sourcehit,1.6343885315,sourcehit-4,sourcehit-4
310,2,30,313.0327,10.0965,threat,0,WALRUS,foil,foil,CR,CR,1.7565,ap101,control-fmri,,2,5,6,2,2,8.5,F_0,foil,0,0,N,301.0327,CR,new,CR,-0.8754941213,CR-0,CR-0
311,2,31,323.1585,9.3738,threat,0,DOUGHNUT,cafeteria,indoor,H,HI_Hi,2.515,ap101,control-fmri,,2,5,6,2,2,8.5,TI_4,indoor,4,0,Hi,311.1585,sourcehit,old,sourcehit,0.8854495029,sourcehit-4,sourcehit-4
312,2,32,332.562,10.198,threat,0,SLIPPER,foil,foil,CR,CR,1.9433,ap101,control-fmri,,2,5,6,2,2,8.5,F_0,foil,0,0,N,320.562,CR,new,CR,-0.5418007613,CR-0,CR-0
313,2,33,342.7892,9.7564,threat,0,SCORPION,desert,outdoor,H,HO_Hi,1.8987,ap101,control-fmri,,2,5,6,2,2,8.5,TO_2,outdoor,2,0,Hi,330.7892,sourcehit,old,sourcehit,-0.2965508129,sourcehit-2,sourcehit-2
314,2,34,352.5748,9.9115,threat,0,MOUSE,subway_interior,foil,M,MI,2.8689,ap101,control-fmri,,2,5,6,2,2,8.5,TI_4,indoor,4,0,N,340.5748,M,old,M,0.8862550125,M-4,M-4
315,2,35,362.516,9.5378,threat,1,NECKLACE,foil,foil,CR,CR,1.9589,ap101,control-fmri,,2,5,6,2,2,8.5,F_0,foil,0,0,N,350.516,CR,new,CR,-0.5139334357,CR-0,CR-0
316,2,36,372.0832,9.3904,threat,0,KNIFE,excavation,foil,M,MI,1.9056,ap101,control-fmri,,2,5,6,2,2,8.5,TO_2,outdoor,2,0,N,360.0832,M,old,M,-0.9479529021,M-2,M-2
317,2,37,381.5029,9.2756,threat,0,LIME,orchard,foil,M,MI,1.9381,ap101,control-fmri,,2,5,6,2,2,8.5,TO_2,outdoor,2,0,N,369.5029,M,old,M,-0.886070044,M-2,M-2
318,2,38,390.8083,9.0593,threat,0,RASH,hangar,outdoor,H,HO_Hi,1.6907,ap101,control-fmri,,2,5,6,2,2,8.5,TO_4,outdoor,4,0,Hi,378.8083,sourcehit,old,sourcehit,-0.6954735221,sourcehit-4,sourcehit-4
319,2,39,399.8971,12.3243,threat,0,CLAM,lobby,indoor,H,HI_Hi,2.1158,ap101,control-fmri,,2,5,6,2,2,8.5,TI_4,indoor,4,0,Hi,387.8971,sourcehit,old,sourcehit,0.1198247649,sourcehit-4,sourcehit-4
320,2,40,412.2507,9.2529,threat,0,SHOVEL,foil,indoor,FA,FAI_Lo,3.4093,ap101,control-fmri,,2,5,6,2,2,8.5,F_0,foil,0,0,Lo,400.2507,FA,new,FA,0.7071067812,FA-0,FA-0
321,2,41,421.5335,9.6891,threat,0,SNAIL,foil,foil,CR,CR,3.6404,ap101,control-fmri,,2,5,6,2,2,8.5,F_0,foil,0,0,N,409.5335,CR,new,CR,2.4898427145,CR-0,CR-0
322,2,42,431.2518,9.116,threat,0,LION,foil,foil,CR,CR,2.4209,ap101,control-fmri,,2,5,6,2,2,8.5,F_0,foil,0,0,N,419.2518,CR,new,CR,0.3113681292,CR-0,CR-0
323,3,1,12.0054,11.0216,safe,0,PENNY,iceberg,outdoor,H,HO_Lo,3.9604,ap101,control-fmri,,2,5,6,2,2,8.5,TO_2,outdoor,2,0,Lo,0.0054,itemhit_lo,old,itemhit,1.5353626807,itemhit_lo-2,itemhit-2
324,3,2,23.0583,11.3349,safe,0,DAMSEL,highway,outdoor,H,HO_Hi,1.6664,ap101,control-fmri,,2,5,6,2,2,8.5,TO_4,outdoor,4,0,Hi,11.0583,sourcehit,old,sourcehit,-0.7420784348,sourcehit-4,sourcehit-4
325,3,3,34.4243,9.8933,safe,0,SUBMARINE,foil,foil,CR,CR,1.438,ap101,control-fmri,,2,5,6,2,2,8.5,F_0,foil,0,0,N,22.4243,CR,new,CR,-1.4444520183,CR-0,CR-0
326,3,4,44.3477,9.1467,safe,0,PANTS,canyon,foil,M,MI,2.7707,ap101,control-fmri,,2,5,6,2,2,8.5,TO_4,outdoor,4,0,N,32.3477,M,old,M,0.6992735766,M-4,M-4
327,3,5,53.5247,10.1072,safe,0,HELMET,boat_deck,outdoor,H,HO_Hi,2.7673,ap101,control-fmri,,2,5,6,2,2,8.5,TO_2,outdoor,2,0,Hi,41.5247,sourcehit,old,sourcehit,1.3693350776,sourcehit-2,sourcehit-2
328,3,6,63.6645,9.6819,safe,0,PUDDLE,ballroom,indoor,H,HI_Hi,2.4065,ap101,control-fmri,,2,5,6,2,2,8.5,TI_2,indoor,2,0,Hi,51.6645,sourcehit,old,sourcehit,0.677357609,sourcehit-2,sourcehit-2
329,3,7,73.3768,10.4692,safe,0,SCOTCH,putting_green,outdoor,H,HO_Hi,2.5869,ap101,control-fmri,,2,5,6,2,2,8.5,TO_4,outdoor,4,0,Hi,61.3768,sourcehit,old,sourcehit,1.0233463433,sourcehit-4,sourcehit-4
330,3,8,83.8763,9.7547,safe,0,JACKET,diner,indoor,H,HI_Hi,2.1213,ap101,control-fmri,,2,5,6,2,2,8.5,TI_2,indoor,2,0,Hi,71.8763,sourcehit,old,sourcehit,0.1303732019,sourcehit-2,sourcehit-2
331,3,9,93.6619,10.3716,safe,0,CANARY,foil,foil,CR,CR,1.7125,ap101,control-fmri,,2,5,6,2,2,8.5,F_0,foil,0,0,N,81.6619,CR,new,CR,-0.9540942703,CR-0,CR-0
332,3,10,104.0637,10.5523,safe,0,DESK,foil,foil,CR,CR,2.6673,ap101,control-fmri,,2,5,6,2,2,8.5,F_0,foil,0,0,N,92.0637,CR,new,CR,0.7515289638,CR-0,CR-0
333,3,11,114.6463,9.9203,safe,0,LAMB,campsite,outdoor,H,HO_Hi,2.3032,ap101,control-fmri,,2,5,6,2,2,8.5,TO_4,outdoor,4,0,Hi,102.6463,sourcehit,old,sourcehit,0.4792387827,sourcehit-4,sourcehit-4
334,3,12,124.5974,11.6213,safe,0,CAGE,archive,indoor,H,HI_Hi,1.9823,ap101,control-fmri,,2,5,6,2,2,8.5,TI_4,indoor,4,0,Hi,112.5974,sourcehit,old,sourcehit,-0.1362145701,sourcehit-4,sourcehit-4
335,3,13,136.2492,10.707,safe,0,CANDLE,foil,foil,CR,CR,2.4448,ap101,control-fmri,,2,5,6,2,2,8.5,F_0,foil,0,0,N,124.2492,CR,new,CR,0.3540623011,CR-0,CR-0
336,3,14,146.9865,10.569,safe,0,BLANKET,foil,foil,CR,CR,2.9425,ap101,control-fmri,,2,5,6,2,2,8.5,F_0,foil,0,0,N,134.9865,CR,new,CR,1.2431371687,CR-0,CR-0
337,3,15,157.5864,9.4166,safe,0,SCOOTER,foil,foil,CR,CR,2.196,ap101,control-fmri,,2,5,6,2,2,8.5,F_0,foil,0,0,N,145.5864,CR,new,CR,-0.0903858144,CR-0,CR-0
338,3,16,167.0333,11.2673,safe,0,MOON,general_store,foil,M,MI,2.4178,ap101,control-fmri,,2,5,6,2,2,8.5,TO_2,outdoor,2,0,N,155.0333,M,old,M,0.0273209418,M-2,M-2
339,3,17,178.331,9.6313,safe,0,STAPLER,foil,foil,CR,CR,2.3533,ap101,control-fmri,,2,5,6,2,2,8.5,F_0,foil,0,0,N,166.331,CR,new,CR,0.1906097184,CR-0,CR-0
340,3,18,187.9934,10.094,safe,0,ORANGE,control_room,foil,M,MI,3.0854,ap101,control-fmri,,2,5,6,2,2,8.5,TI_4,indoor,4,0,N,175.9934,M,old,M,1.298490052,M-4,M-4
341,3,19,198.1174,12.329,safe,0,LIGHTNING,promenade_deck,outdoor,H,HO_Hi,1.9664,ap101,control-fmri,,2,5,6,2,2,8.5,TO_2,outdoor,2,0,Hi,186.1174,sourcehit,old,sourcehit,-0.1667091426,sourcehit-2,sourcehit-2
342,3,20,210.4768,9.912,safe,0,CEREAL,foil,foil,CR,CR,2.213,ap101,control-fmri,,2,5,6,2,2,8.5,F_0,foil,0,0,N,198.4768,CR,new,CR,-0.060017575,CR-0,CR-0
343,3,21,220.4198,9.9298,safe,0,RUDDER,reception,indoor,H,HI_Hi,1.7167,ap101,control-fmri,,2,5,6,2,2,8.5,TI_4,indoor,4,0,Hi,208.4198,sourcehit,old,sourcehit,-0.6456081834,sourcehit-4,sourcehit-4
344,3,22,230.3799,9.1786,safe,0,HONEY,foil,foil,CR,CR,2.2781,ap101,control-fmri,,2,5,6,2,2,8.5,F_0,foil,0,0,N,218.3799,CR,new,CR,0.0562749182,CR-0,CR-0
345,3,23,239.5889,11.9417,safe,0,RAKE,greenhouse,foil,M,MI,2.3539,ap101,control-fmri,,2,5,6,2,2,8.5,TO_2,outdoor,2,0,N,227.5889,M,old,M,-0.0943502777,M-2,M-2
346,3,24,251.5617,9.5335,safe,0,FAN,laundromat,indoor,H,HI_Hi,2.4004,ap101,control-fmri,,2,5,6,2,2,8.5,TI_4,indoor,4,0,Hi,239.5617,sourcehit,old,sourcehit,0.6656584333,sourcehit-4,sourcehit-4
347,3,25,261.1257,9.689,safe,0,TORNADO,classroom,indoor,H,HI_Lo,2.8156,ap101,control-fmri,,2,5,6,2,2,8.5,TI_2,indoor,2,0,Lo,249.1257,itemhit_lo,old,itemhit,-0.8507714276,itemhit_lo-2,itemhit-2
348,3,26,270.8451,9.7614,safe,0,BOOT,library,foil,M,MI,2.769,ap101,control-fmri,,2,5,6,2,2,8.5,TI_2,indoor,2,0,N,258.8451,M,old,M,0.6960366271,M-2,M-2
349,3,27,280.6372,9.1241,safe,0,BOWL,mountain_snowy,foil,M,MI,2.7486,ap101,control-fmri,,2,5,6,2,2,8.5,TO_2,outdoor,2,0,N,268.6372,M,old,M,0.6571932331,M-2,M-2
350,3,28,289.792,9.8053,safe,0,OWL,hayfield,outdoor,H,HO_Lo,2.639,ap101,control-fmri,,2,5,6,2,2,8.5,TO_2,outdoor,2,0,Lo,277.792,itemhit_lo,old,itemhit,-1.2188630449,itemhit_lo-2,itemhit-2
351,3,29,299.6282,12.3244,safe,0,DETECTIVE,kitchen,indoor,H,HI_Hi,1.4471,ap101,control-fmri,,2,5,6,2,2,8.5,TI_2,indoor,2,0,Hi,287.6282,sourcehit,old,sourcehit,-1.1626733873,sourcehit-2,sourcehit-2
352,3,30,311.9836,9.3738,safe,0,FROG,rock_arch,outdoor,H,HO_Hi,1.6671,ap101,control-fmri,,2,5,6,2,2,8.5,TO_4,outdoor,4,0,Hi,299.9836,sourcehit,old,sourcehit,-0.7407359064,sourcehit-4,sourcehit-4
353,3,31,321.388,9.9868,safe,0,ASPIRIN,kitchenette,indoor,H,HI_Hi,2.3083,ap101,control-fmri,,2,5,6,2,2,8.5,TI_4,indoor,4,0,Hi,309.388,sourcehit,old,sourcehit,0.4890200607,sourcehit-4,sourcehit-4
354,3,32,331.4059,11.1844,safe,0,WITCH,foil,outdoor,FA,FAO_Hi,2.0826,ap101,control-fmri,,2,5,6,2,2,8.5,F_0,foil,0,0,Hi,319.4059,FA,new,FA,-0.7071067812,FA-0,FA-0
355,3,33,342.6208,9.7537,safe,0,GORILLA,foil,foil,CR,CR,2.4457,ap101,control-fmri,,2,5,6,2,2,8.5,F_0,foil,0,0,N,330.6208,CR,new,CR,0.3556700314,CR-0,CR-0
356,3,34,352.4052,9.1013,safe,0,ENVELOPE,computer_room,indoor,H,HI_Hi,1.7042,ap101,control-fmri,,2,5,6,2,2,8.5,TI_4,indoor,4,0,Hi,340.4052,sourcehit,old,sourcehit,-0.6695819039,sourcehit-4,sourcehit-4
357,3,35,361.5379,9.2739,safe,0,BANDAGE,foil,foil,CR,CR,3.5233,ap101,control-fmri,,2,5,6,2,2,8.5,F_0,foil,0,0,N,349.5379,CR,new,CR,2.2806591361,CR-0,CR-0
358,3,36,370.8425,9.3891,safe,0,BASKET,lecture_room,foil,M,MI,2.6624,ap101,control-fmri,,2,5,6,2,2,8.5,TI_2,indoor,2,0,N,358.8425,M,old,M,0.4930608525,M-2,M-2
359,3,37,380.2622,9.2524,safe,0,STOMACH,foil,foil,CR,CR,2.6153,ap101,control-fmri,,2,5,6,2,2,8.5,F_0,foil,0,0,N,368.2622,CR,new,CR,0.6586378786,CR-0,CR-0
360,3,38,389.5453,10.1954,safe,0,HOSE,hot_tub,indoor,SM,SMO_Lo,3.1249,ap101,control-fmri,,2,5,6,2,2,8.5,TO_4,outdoor,4,0,Lo,377.5453,itemhit_lo,old,itemhit,-0.2060900162,itemhit_lo-4,itemhit-4
361,3,39,399.7711,10.6527,safe,0,QUILL,foil,foil,CR,CR,2.6933,ap101,control-fmri,,2,5,6,2,2,8.5,F_0,foil,0,0,N,387.7711,CR,new,CR,0.7979745064,CR-0,CR-0
362,3,40,410.4546,11.6786,safe,0,ROCKER,corral,outdoor,H,HO_Hi,1.8104,ap101,control-fmri,,2,5,6,2,2,8.5,TO_4,outdoor,4,0,Hi,398.4546,sourcehit,old,sourcehit,-0.4659011745,sourcehit-4,sourcehit-4
363,3,41,422.1654,9.0569,safe,0,SCROLL,restaurant,indoor,H,HI_Hi,2.7644,ap101,control-fmri,,2,5,6,2,2,8.5,TI_2,indoor,2,0,Hi,410.1654,sourcehit,old,sourcehit,1.3637731745,sourcehit-2,sourcehit-2
364,3,42,431.2531,9.115,safe,0,TROLLEY,drugstore,indoor,H,HI_Hi,1.9945,ap101,control-fmri,,2,5,6,2,2,8.5,TI_4,indoor,4,0,Hi,419.2531,sourcehit,old,sourcehit,-0.1128162189,sourcehit-4,sourcehit-4
365,4,1,12.0056,9.3009,threat,0,POSTER,aquarium,outdoor,SM,SMI_Hi,3.7082,ap101,control-fmri,,2,5,6,2,2,8.5,TI_2,indoor,2,0,Hi,0.0056,sourcemiss_hi,old,itemhit,0.9752800687,sourcemiss_hi-2,itemhit-2
366,4,2,21.3392,11.6167,threat,0,NIGHTGOWN,nuclear_power_plant,outdoor,H,HO_Hi,1.5411,ap101,control-fmri,,2,5,6,2,2,8.5,TO_4,outdoor,4,0,Hi,9.3392,sourcehit,old,sourcehit,-0.9823910091,sourcehit-4,sourcehit-4
367,4,3,32.9882,9.373,threat,0,CAMERA,foil,foil,CR,CR,1.6854,ap101,control-fmri,,2,5,6,2,2,8.5,F_0,foil,0,0,N,20.9882,CR,new,CR,-1.0025048167,CR-0,CR-0
368,4,4,42.3931,9.9303,threat,0,OTTER,music_studio,indoor,H,HI_Hi,2.3195,ap101,control-fmri,,2,5,6,2,2,8.5,TI_4,indoor,4,0,Hi,30.3931,sourcehit,old,sourcehit,0.5105005142,sourcehit-4,sourcehit-4
369,4,5,52.3552,9.8918,threat,0,SEAWEED,airplane_cabin,indoor,H,HI_Hi,1.8615,ap101,control-fmri,,2,5,6,2,2,8.5,TI_2,indoor,2,0,Hi,40.3552,sourcehit,old,sourcehit,-0.3678966051,sourcehit-2,sourcehit-2
370,4,6,62.2795,9.6866,threat,0,WHIP,bamboo_forest,outdoor,H,HO_Hi,2.1483,ap101,control-fmri,,2,5,6,2,2,8.5,TO_4,outdoor,4,0,Hi,50.2795,sourcehit,old,sourcehit,0.1821564382,sourcehit-4,sourcehit-4
371,4,7,71.9979,9.1459,threat,0,ASPARAGUS,galley,indoor,H,HI_Hi,2.8576,ap101,control-fmri,,2,5,6,2,2,8.5,TI_2,indoor,2,0,Hi,59.9979,sourcehit,old,sourcehit,1.5425212346,sourcehit-2,sourcehit-2
372,4,8,81.1756,12.327,threat,0,SOUP,foil,foil,CR,CR,1.6429,ap101,control-fmri,,2,5,6,2,2,8.5,F_0,foil,0,0,N,69.1756,CR,new,CR,-1.0784254152,CR-0,CR-0
373,4,9,93.5343,9.1229,threat,0,ROPE,marsh,outdoor,H,HO_Hi,1.3401,ap101,control-fmri,,2,5,6,2,2,8.5,TO_2,outdoor,2,0,Hi,81.5343,sourcehit,old,sourcehit,-1.3678884348,sourcehit-2,sourcehit-2
374,4,10,102.6889,9.6836,threat,0,QUAIL,foil,foil,CR,CR,2.2381,ap101,control-fmri,,2,5,6,2,2,8.5,F_0,foil,0,0,N,90.6889,CR,new,CR,-0.0151797627,CR-0,CR-0
375,4,11,112.4044,10.6489,threat,0,CLOAK,florist_shop,indoor,H,HI_Hi,2.1292,ap101,control-fmri,,2,5,6,2,2,8.5,TI_4,indoor,4,0,Hi,100.4044,sourcehit,old,sourcehit,0.1455245933,sourcehit-4,sourcehit-4
376,4,12,123.0854,9.1141,threat,0,SAXOPHONE,fire_escape,outdoor,H,HO_Hi,1.7884,ap101,control-fmri,,2,5,6,2,2,8.5,TO_2,outdoor,2,0,Hi,111.0854,sourcehit,old,sourcehit,-0.5080949226,sourcehit-2,sourcehit-2
377,4,13,132.2314,10.369,threat,0,HAM,foil,foil,CR,CR,1.9889,ap101,control-fmri,,2,5,6,2,2,8.5,F_0,foil,0,0,N,120.2314,CR,new,CR,-0.460342425,CR-0,CR-0
378,4,14,142.6324,9.7538,threat,0,LANTERN,ice_skating_rink,indoor,H,HI_Hi,2.4462,ap101,control-fmri,,2,5,6,2,2,8.5,TI_2,indoor,2,0,Hi,130.6324,sourcehit,old,sourcehit,0.7534981453,sourcehit-2,sourcehit-2
379,4,15,152.4187,10.5487,threat,0,DOLL,foil,foil,CR,CR,2.2724,ap101,control-fmri,,2,5,6,2,2,8.5,F_0,foil,0,0,N,140.4187,CR,new,CR,0.0460926262,CR-0,CR-0
380,4,16,162.9995,9.7608,threat,0,PASSPORT,shopping_mall,indoor,H,HI_Hi,2.3815,ap101,control-fmri,,2,5,6,2,2,8.5,TI_2,indoor,2,0,Hi,150.9995,sourcehit,old,sourcehit,0.6294101679,sourcehit-2,sourcehit-2
381,4,17,172.7924,10.7069,threat,0,SPATULA,,indoor,H,HI_Hi,2.5739,ap101,control-fmri,,2,5,6,2,2,8.5,TI_2,indoor,2,0,Hi,160.7924,sourcehit,old,sourcehit,0.998413674,sourcehit-2,sourcehit-2
382,4,18,183.5318,9.918,threat,0,CHICKEN,power_plant,foil,M,MI,2.8814,ap101,control-fmri,,2,5,6,2,2,8.5,TO_4,outdoor,4,0,N,171.5318,M,old,M,0.9100561118,M-4,M-4
383,4,19,193.4818,11.2643,threat,0,TWEEZERS,foil,foil,CR,CR,2.5523,ap101,control-fmri,,2,5,6,2,2,8.5,F_0,foil,0,0,N,181.4818,CR,new,CR,0.5460967561,CR-0,CR-0
384,4,20,204.7788,9.3894,threat,0,POWDER,foil,foil,CR,CR,2.9827,ap101,control-fmri,,2,5,6,2,2,8.5,F_0,foil,0,0,N,192.7788,CR,new,CR,1.3149491231,CR-0,CR-0
385,4,21,214.2009,10.5655,threat,0,LAMP,foil,foil,CR,CR,3.3559,ap101,control-fmri,,2,5,6,2,2,8.5,F_0,foil,0,0,N,202.2009,CR,new,CR,1.9816212963,CR-0,CR-0
386,4,22,224.7985,9.986,threat,0,UMBRELLA,badlands,foil,M,MI,3.2481,ap101,control-fmri,,2,5,6,2,2,8.5,TO_2,outdoor,2,0,N,212.7985,M,old,M,1.6082851602,M-2,M-2
387,4,23,234.8164,12.3213,threat,0,MUSSEL,foil,foil,CR,CR,2.7565,ap101,control-fmri,,2,5,6,2,2,8.5,F_0,foil,0,0,N,222.8164,CR,new,CR,0.9108729023,CR-0,CR-0
388,4,24,247.1697,10.4685,threat,0,TRAY,raceway,outdoor,H,HO_Lo,3.8303,ap101,control-fmri,,2,5,6,2,2,8.5,TO_2,outdoor,2,0,Lo,235.1697,itemhit_lo,old,itemhit,1.2641921291,itemhit_lo-2,itemhit-2
389,4,25,257.6701,10.1036,threat,0,SYRUP,nursery,indoor,H,HI_Hi,1.5091,ap101,control-fmri,,2,5,6,2,2,8.5,TI_4,indoor,4,0,Hi,245.6701,sourcehit,old,sourcehit,-1.0437637336,sourcehit-4,sourcehit-4
390,4,26,267.8065,9.4168,threat,0,EYE,bookstore,indoor,H,HI_Hi,1.8288,ap101,control-fmri,,2,5,6,2,2,8.5,TI_4,indoor,4,0,Hi,255.8065,sourcehit,old,sourcehit,-0.4306118579,sourcehit-4,sourcehit-4
391,4,27,277.2556,9.7516,threat,0,TURTLE,toyshop,foil,M,MI,2.7829,ap101,control-fmri,,2,5,6,2,2,8.5,TI_4,indoor,4,0,N,265.2556,M,old,M,0.7225034495,M-4,M-4
392,4,28,287.0392,9.5325,threat,0,SPONGE,foil,foil,CR,CR,2.5527,ap101,control-fmri,,2,5,6,2,2,8.5,F_0,foil,0,0,N,275.0392,CR,new,CR,0.5468113029,CR-0,CR-0
393,4,29,296.6044,11.9396,threat,0,NOODLE,foil,foil,CR,CR,2.752,ap101,control-fmri,,2,5,6,2,2,8.5,F_0,foil,0,0,N,284.6044,CR,new,CR,0.9028342507,CR-0,CR-0
394,4,30,308.5761,9.0996,threat,0,RACQUET,dam,indoor,SM,SMO_Lo,3.1422,ap101,control-fmri,,2,5,6,2,2,8.5,TO_2,outdoor,2,0,Lo,296.5761,itemhit_lo,old,itemhit,-0.1700312111,itemhit_lo-2,itemhit-2
395,4,31,317.7078,9.6307,threat,0,SOAP,biology_laboratory,foil,M,MI,2.7844,ap101,control-fmri,,2,5,6,2,2,8.5,TI_4,indoor,4,0,N,305.7078,M,old,M,0.7253595814,M-4,M-4
396,4,32,327.3713,11.1836,threat,0,OATMEAL,foil,foil,CR,CR,2.8766,ap101,control-fmri,,2,5,6,2,2,8.5,F_0,foil,0,0,N,315.3713,CR,new,CR,1.1254155819,CR-0,CR-0
397,4,33,338.587,9.8052,threat,0,BROWNIE,park,outdoor,H,HO_Hi,2.1579,ap101,control-fmri,,2,5,6,2,2,8.5,TO_2,outdoor,2,0,Hi,326.587,sourcehit,old,sourcehit,0.2005682555,sourcehit-2,sourcehit-2
398,4,34,348.4244,10.9932,threat,0,SEAL,foil,foil,CR,CR,2.3831,ap101,control-fmri,,2,5,6,2,2,8.5,F_0,foil,0,0,N,336.4244,CR,new,CR,0.2438434557,CR-0,CR-0
399,4,35,359.4503,11.6784,threat,0,ROSARY,gas_station,outdoor,H,HO_Hi,2.4704,ap101,control-fmri,,2,5,6,2,2,8.5,TO_2,outdoor,2,0,Hi,347.4503,sourcehit,old,sourcehit,0.7999112682,sourcehit-2,sourcehit-2
400,4,36,371.161,9.9084,threat,0,COFFEE,corn_field,outdoor,H,HO_Hi,1.4378,ap101,control-fmri,,2,5,6,2,2,8.5,TO_4,outdoor,4,0,Hi,359.161,sourcehit,old,sourcehit,-1.1805098354,sourcehit-4,sourcehit-4
401,4,37,381.1015,9.2526,threat,0,DOVE,foil,foil,CR,CR,2.7986,ap101,control-fmri,,2,5,6,2,2,8.5,F_0,foil,0,0,N,369.1015,CR,new,CR,0.986078954,CR-0,CR-0
402,4,38,390.3868,10.1945,threat,0,CANDY,outhouse,foil,M,MI,3.3497,ap101,control-fmri,,2,5,6,2,2,8.5,TO_4,outdoor,4,0,N,378.3868,M,old,M,1.8017404951,M-4,M-4
403,4,39,400.6136,11.3322,threat,0,HATCHET,sauna,indoor,H,HI_Hi,2.022,ap101,control-fmri,,2,5,6,2,2,8.5,TI_4,indoor,4,0,Hi,388.6136,sourcehit,old,sourcehit,-0.0600740338,sourcehit-4,sourcehit-4
404,4,40,411.9781,10.0934,threat,1,MITTEN,inn,outdoor,H,HO_Hi,1.4898,ap101,control-fmri,,2,5,6,2,2,8.5,TO_4,outdoor,4,0,Hi,399.9781,sourcehit,old,sourcehit,-1.0807791581,sourcehit-4,sourcehit-4
405,4,41,422.1044,9.1746,threat,0,BATON,cathedral,indoor,H,HI_Lo,3.8575,ap101,control-fmri,,2,5,6,2,2,8.5,TI_2,indoor,2,0,Lo,410.1044,itemhit_lo,old,itemhit,1.3208857418,itemhit_lo-2,itemhit-2
406,4,42,431.3112,9.0573,threat,0,FIDDLE,forest_needleleaf,outdoor,H,HO_Hi,1.8516,ap101,control-fmri,,2,5,6,2,2,8.5,TO_4,outdoor,4,0,Hi,419.3112,sourcehit,old,sourcehit,-0.3868837917,sourcehit-4,sourcehit-4
407,5,1,12.005,11.2124,safe,0,HAMMER,childs_room,indoor,H,HI_Hi,1.6982,ap101,control-fmri,,2,5,6,2,2,8.5,TI_4,indoor,4,0,Hi,0.005,sourcehit,old,sourcehit,-0.6810892898,sourcehit-4,sourcehit-4
408,5,2,23.2515,9.9268,safe,0,SARDINE,foil,foil,CR,CR,1.7183,ap101,control-fmri,,2,5,6,2,2,8.5,F_0,foil,0,0,N,11.2515,CR,new,CR,-0.9437333416,CR-0,CR-0
409,5,3,33.2118,9.4138,safe,0,KILT,foil,foil,CR,CR,1.8072,ap101,control-fmri,,2,5,6,2,2,8.5,F_0,foil,0,0,N,21.2118,CR,new,CR,-0.7849253132,CR-0,CR-0
410,5,4,42.6585,9.7526,safe,0,APPLE,playroom,indoor,H,HI_Hi,2.0817,ap101,control-fmri,,2,5,6,2,2,8.5,TI_2,indoor,2,0,Hi,30.6585,sourcehit,old,sourcehit,0.0544244553,sourcehit-2,sourcehit-2
411,5,5,52.4441,9.1215,safe,0,BOAT,music_store,foil,M,MI,2.1962,ap101,control-fmri,,2,5,6,2,2,8.5,TI_2,indoor,2,0,N,40.4441,M,old,M,-0.3946249461,M-2,M-2
412,5,6,61.6,11.9373,safe,0,RABBIT,clothing_store,indoor,H,HI_Lo,3.0831,ap101,control-fmri,,2,5,6,2,2,8.5,TI_4,indoor,4,0,Lo,49.6,itemhit_lo,old,itemhit,-0.2932147592,itemhit_lo-4,itemhit-4
413,5,7,73.5703,9.1129,safe,0,CORAL,foil,foil,CR,CR,2.0808,ap101,control-fmri,,2,5,6,2,2,8.5,F_0,foil,0,0,N,61.5703,CR,new,CR,-0.2961752955,CR-0,CR-0
414,5,8,82.7161,10.7059,safe,0,BABY,optician,indoor,H,HI_Hi,2.2657,ap101,control-fmri,,2,5,6,2,2,8.5,TI_2,indoor,2,0,Hi,70.7161,sourcehit,old,sourcehit,0.4073176212,sourcehit-2,sourcehit-2
415,5,9,93.4555,9.7584,safe,0,BANDIT,foil,foil,CR,CR,1.8173,ap101,control-fmri,,2,5,6,2,2,8.5,F_0,foil,0,0,N,81.4555,CR,new,CR,-0.7668830062,CR-0,CR-0
416,5,10,103.2471,10.5502,safe,0,SHARK,picnic_area,outdoor,H,HO_Hi,2.6559,ap101,control-fmri,,2,5,6,2,2,8.5,TO_2,outdoor,2,0,Hi,91.2471,sourcehit,old,sourcehit,1.1556812805,sourcehit-2,sourcehit-2
417,5,11,113.8302,9.387,safe,0,VINE,rope_bridge,outdoor,H,HO_Hi,1.5364,ap101,control-fmri,,2,5,6,2,2,8.5,TO_2,outdoor,2,0,Hi,101.8302,sourcehit,old,sourcehit,-0.991405128,sourcehit-2,sourcehit-2
418,5,12,123.2509,10.4659,safe,0,GEESE,foil,foil,CR,CR,2.0856,ap101,control-fmri,,2,5,6,2,2,8.5,F_0,foil,0,0,N,111.2509,CR,new,CR,-0.2876007338,CR-0,CR-0
419,5,13,133.75,12.3213,safe,0,CAMEL,boathouse,outdoor,H,HO_Lo,2.5193,ap101,control-fmri,,2,5,6,2,2,8.5,TO_2,outdoor,2,0,Lo,121.75,itemhit_lo,old,itemhit,-1.468356627,itemhit_lo-2,itemhit-2
420,5,14,146.1047,9.1737,safe,0,SOCK,mountain,outdoor,H,HO_Hi,1.8228,ap101,control-fmri,,2,5,6,2,2,8.5,TO_4,outdoor,4,0,Hi,134.1047,sourcehit,old,sourcehit,-0.4421192438,sourcehit-4,sourcehit-4
421,5,15,155.3121,12.3245,safe,0,NEEDLE,foil,foil,CR,CR,1.7668,ap101,control-fmri,,2,5,6,2,2,8.5,F_0,foil,0,0,N,143.3121,CR,new,CR,-0.8570945409,CR-0,CR-0
422,5,16,167.6699,9.5326,safe,0,MEDICINE,cubicle,indoor,H,HI_Hi,1.23,ap101,control-fmri,,2,5,6,2,2,8.5,TI_4,indoor,4,0,Hi,155.6699,sourcehit,old,sourcehit,-1.5790489651,sourcehit-4,sourcehit-4
423,5,17,177.2357,11.6782,safe,0,ELEPHANT,aqueduct,outdoor,H,HO_Hi,1.6662,ap101,control-fmri,,2,5,6,2,2,8.5,TO_4,outdoor,4,0,Hi,165.2357,sourcehit,old,sourcehit,-0.7424620143,sourcehit-4,sourcehit-4
424,5,18,188.9478,10.0911,safe,0,TELEGRAPH,river,outdoor,H,HO_Hi,1.2249,ap101,control-fmri,,2,5,6,2,2,8.5,TO_4,outdoor,4,0,Hi,176.9478,sourcehit,old,sourcehit,-1.588830243,sourcehit-4,sourcehit-4
425,5,19,199.0721,10.649,safe,0,ROCK,foil,foil,CR,CR,3.8239,ap101,control-fmri,,2,5,6,2,2,8.5,F_0,foil,0,0,N,187.0721,CR,new,CR,2.8176410634,CR-0,CR-0
426,5,20,209.7545,9.9183,safe,0,SHEEP,mausoleum,outdoor,H,HO_Hi,2.9683,ap101,control-fmri,,2,5,6,2,2,8.5,TO_4,outdoor,4,0,Hi,197.7545,sourcehit,old,sourcehit,1.7548325034,sourcehit-4,sourcehit-4
427,5,21,219.7066,9.0957,safe,0,CHOCOLATE,construction_site,foil,M,MI,2.2972,ap101,control-fmri,,2,5,6,2,2,8.5,TO_2,outdoor,2,0,N,207.7066,M,old,M,-0.202312064,M-2,M-2
428,5,22,228.8354,9.0568,safe,0,EASEL,rice_paddy,outdoor,H,HO_Hi,1.2763,ap101,control-fmri,,2,5,6,2,2,8.5,TO_4,outdoor,4,0,Hi,216.8354,sourcehit,old,sourcehit,-1.4902503043,sourcehit-4,sourcehit-4
429,5,23,237.9254,9.6809,safe,0,RICE,ocean,outdoor,H,HO_Lo,2.8912,ap101,control-fmri,,2,5,6,2,2,8.5,TO_2,outdoor,2,0,Lo,225.9254,itemhit_lo,old,itemhit,-0.6931965336,itemhit_lo-2,itemhit-2
430,5,24,247.6402,11.2641,safe,0,WOLF,bowling_alley,foil,M,MI,1.818,ap101,control-fmri,,2,5,6,2,2,8.5,TI_2,indoor,2,0,N,235.6402,M,old,M,-1.1147510058,M-2,M-2
431,5,25,258.9377,9.9088,safe,0,CANE,formal_garden,outdoor,H,HO_Hi,2.2977,ap101,control-fmri,,2,5,6,2,2,8.5,TO_4,outdoor,4,0,Hi,246.9377,sourcehit,old,sourcehit,0.4686903457,sourcehit-4,sourcehit-4
432,5,26,268.8797,9.749,safe,0,SWORD,attic,indoor,H,HI_Hi,2.0124,ap101,control-fmri,,2,5,6,2,2,8.5,TI_4,indoor,4,0,Hi,256.8797,sourcehit,old,sourcehit,-0.0784858512,sourcehit-4,sourcehit-4
433,5,27,278.6627,10.1024,safe,0,OLIVE,foil,foil,CR,CR,3.2732,ap101,control-fmri,,2,5,6,2,2,8.5,F_0,foil,0,0,N,266.6627,CR,new,CR,1.8338887434,CR-0,CR-0
434,5,28,288.7982,9.3722,safe,0,WALNUT,casino,outdoor,SM,SMI_Lo,3.6974,ap101,control-fmri,,2,5,6,2,2,8.5,TI_2,indoor,2,0,Lo,276.7982,itemhit_lo,old,itemhit,0.9871854703,itemhit_lo-2,itemhit-2
435,5,29,298.2039,10.1932,safe,0,MOTH,foil,foil,CR,CR,1.6774,ap101,control-fmri,,2,5,6,2,2,8.5,F_0,foil,0,0,N,286.2039,CR,new,CR,-1.0167957529,CR-0,CR-0
436,5,30,308.431,11.6174,safe,0,DIAMOND,lock_chamber,indoor,SM,SMO_Lo,3.9397,ap101,control-fmri,,2,5,6,2,2,8.5,TO_2,outdoor,2,0,Lo,296.431,itemhit_lo,old,itemhit,1.4922171741,itemhit_lo-2,itemhit-2
437,5,31,320.0821,10.9916,safe,0,CRAB,foil,foil,CR,CR,2.448,ap101,control-fmri,,2,5,6,2,2,8.5,F_0,foil,0,0,N,308.0821,CR,new,CR,0.3597786755,CR-0,CR-0
438,5,32,331.1071,9.6849,safe,0,VIOLIN,boardwalk,outdoor,H,HO_Hi,1.1682,ap101,control-fmri,,2,5,6,2,2,8.5,TO_2,outdoor,2,0,Hi,319.1071,sourcehit,old,sourcehit,-1.6975750392,sourcehit-2,sourcehit-2
439,5,33,340.826,9.25,safe,0,ROSE,cemetery,outdoor,H,HO_Hi,1.8281,ap101,control-fmri,,2,5,6,2,2,8.5,TO_4,outdoor,4,0,Hi,328.826,sourcehit,old,sourcehit,-0.4319543863,sourcehit-4,sourcehit-4
440,5,34,350.1094,11.3331,safe,0,GLOBE,chicken_coop,foil,M,MI,2.1026,ap101,control-fmri,,2,5,6,2,2,8.5,TI_4,indoor,4,0,N,338.1094,M,old,M,-0.5728475775,M-4,M-4
441,5,35,361.476,9.1422,safe,0,TRIBE,foil,foil,CR,CR,2.2306,ap101,control-fmri,,2,5,6,2,2,8.5,F_0,foil,0,0,N,349.476,CR,new,CR,-0.0285775154,CR-0,CR-0
442,5,36,370.6523,9.6295,safe,0,EAGLE,dentists_office,indoor,H,HI_Hi,2.1282,ap101,control-fmri,,2,5,6,2,2,8.5,TI_4,indoor,4,0,Hi,358.6523,sourcehit,old,sourcehit,0.1436066956,sourcehit-4,sourcehit-4
443,5,37,380.3152,9.2708,safe,0,MILK,foil,foil,CR,CR,1.7972,ap101,control-fmri,,2,5,6,2,2,8.5,F_0,foil,0,0,N,368.3152,CR,new,CR,-0.8027889834,CR-0,CR-0
444,5,38,389.62,9.8924,safe,0,MEDAL,foil,foil,CR,CR,2.4673,ap101,control-fmri,,2,5,6,2,2,8.5,F_0,foil,0,0,N,377.62,CR,new,CR,0.3942555591,CR-0,CR-0
445,5,39,399.546,9.8022,safe,0,CHEESE,volleyball_court,foil,M,MI,2.2849,ap101,control-fmri,,2,5,6,2,2,8.5,TI_2,indoor,2,0,N,387.546,M,old,M,-0.2257323457,M-2,M-2
446,5,40,409.3817,10.3694,safe,0,MUFFIN,kennel,indoor,H,HI_Hi,2.4235,ap101,control-fmri,,2,5,6,2,2,8.5,TI_4,indoor,4,0,Hi,397.3817,sourcehit,old,sourcehit,0.7099618688,sourcehit-4,sourcehit-4
447,5,41,419.7855,10.5633,safe,0,PIANO,foil,foil,CR,CR,2.8752,ap101,control-fmri,,2,5,6,2,2,8.5,F_0,foil,0,0,N,407.7855,CR,new,CR,1.122914668,CR-0,CR-0
448,5,42,430.3822,9.9862,safe,0,THONG,boxing_ring,indoor,H,HI_Hi,1.8012,ap101,control-fmri,,2,5,6,2,2,8.5,TI_2,indoor,2,0,Hi,418.3822,sourcehit,old,sourcehit,-0.4835458328,sourcehit-2,sourcehit-2
449,6,1,12.0056,9.4007,threat,0,BELL,movie_theater,foil,M,MI,1.4435,ap101,control-fmri,,2,5,6,2,2,8.5,TI_2,indoor,2,0,N,0.0056,M,old,M,-1.8278319402,M-2,M-2
450,6,2,21.4421,11.614,threat,0,SHRIMP,foil,foil,CR,CR,1.9954,ap101,control-fmri,,2,5,6,2,2,8.5,F_0,foil,0,0,N,9.4421,CR,new,CR,-0.4487310393,CR-0,CR-0
451,6,3,33.0899,9.751,threat,1,CANNON,hotel,outdoor,H,HO_Lo,3.3288,ap101,control-fmri,,2,5,6,2,2,8.5,TO_4,outdoor,4,0,Lo,21.0899,itemhit_lo,old,itemhit,0.2189036461,itemhit_lo-4,itemhit-4
452,6,4,42.8755,9.0968,threat,0,BRAIN,botanical_garden,outdoor,H,HO_Hi,1.7898,ap101,control-fmri,,2,5,6,2,2,8.5,TO_2,outdoor,2,0,Hi,30.8755,sourcehit,old,sourcehit,-0.5054098659,sourcehit-2,sourcehit-2
453,6,5,52.0065,9.7486,threat,1,WORM,foil,foil,CR,CR,2.4846,ap101,control-fmri,,2,5,6,2,2,8.5,F_0,foil,0,0,N,40.0065,CR,new,CR,0.4251597086,CR-0,CR-0
454,6,6,61.789,9.1112,threat,0,GLOVE,herb_garden,outdoor,H,HO_Hi,1.7121,ap101,control-fmri,,2,5,6,2,2,8.5,TO_4,outdoor,4,0,Hi,49.789,sourcehit,old,sourcehit,-0.6544305126,sourcehit-4,sourcehit-4
455,6,7,70.9348,11.3313,threat,0,TIGER,foil,foil,CR,CR,2.3876,ap101,control-fmri,,2,5,6,2,2,8.5,F_0,foil,0,0,N,58.9348,CR,new,CR,0.2518821073,CR-0,CR-0
456,6,8,82.3004,11.9388,threat,0,FENCE,pulpit,foil,M,MI,2.5465,ap101,control-fmri,,2,5,6,2,2,8.5,TI_4,indoor,4,0,N,70.3004,M,old,M,0.27237706,M-4,M-4
457,6,9,94.2732,9.6854,threat,0,BARREL,oilrig,outdoor,H,HO_Hi,3.1699,ap101,control-fmri,,2,5,6,2,2,8.5,TO_2,outdoor,2,0,Hi,82.2732,sourcehit,old,sourcehit,2.1414806677,sourcehit-2,sourcehit-2
458,6,10,103.9934,10.1002,threat,0,LETTUCE,lido_deck,outdoor,H,HO_Hi,1.971,ap101,control-fmri,,2,5,6,2,2,8.5,TO_2,outdoor,2,0,Hi,91.9934,sourcehit,old,sourcehit,-0.1578868135,sourcehit-2,sourcehit-2
459,6,11,114.1275,10.5646,threat,0,CHERRY,train_station,foil,M,MI,2.7339,ap101,control-fmri,,2,5,6,2,2,8.5,TI_2,indoor,2,0,N,102.1275,M,old,M,0.6292031403,M-2,M-2
460,6,12,124.7261,9.9092,threat,0,DRUM,foil,foil,CR,CR,2.9367,ap101,control-fmri,,2,5,6,2,2,8.5,F_0,foil,0,0,N,112.7261,CR,new,CR,1.23277624,CR-0,CR-0
461,6,13,134.6698,11.6758,threat,0,SCISSORS,foil,foil,CR,CR,2.1658,ap101,control-fmri,,2,5,6,2,2,8.5,F_0,foil,0,0,N,122.6698,CR,new,CR,-0.1443340985,CR-0,CR-0
462,6,14,146.3799,9.0538,threat,0,BIBLE,television_studio,outdoor,SM,SMI_Lo,2.9254,ap101,control-fmri,,2,5,6,2,2,8.5,TI_2,indoor,2,0,Lo,134.3799,itemhit_lo,old,itemhit,-0.621912653,itemhit_lo-2,itemhit-2
463,6,15,155.4675,9.2491,threat,0,FOX,amusement_park,outdoor,H,HO_Lo,3.0893,ap101,control-fmri,,2,5,6,2,2,8.5,TO_2,outdoor,2,0,Lo,143.4675,itemhit_lo,old,itemhit,-0.2802919504,itemhit_lo-2,itemhit-2
464,6,16,164.7512,9.121,threat,0,SNOW,pantry,foil,M,MI,2.7291,ap101,control-fmri,,2,5,6,2,2,8.5,TI_2,indoor,2,0,N,152.7512,M,old,M,0.6200635182,M-2,M-2
465,6,17,173.9065,10.5477,threat,0,SQUIRREL,foil,foil,CR,CR,2.8283,ap101,control-fmri,,2,5,6,2,2,8.5,F_0,foil,0,0,N,161.9065,CR,new,CR,1.0391340546,CR-0,CR-0
466,6,18,184.4883,9.9179,threat,0,SANDAL,foil,foil,CR,CR,2.5173,ap101,control-fmri,,2,5,6,2,2,8.5,F_0,foil,0,0,N,172.4883,CR,new,CR,0.4835739103,CR-0,CR-0
467,6,19,194.4409,9.2708,threat,0,WINE,dorm_room,foil,M,MI,3.0716,ap101,control-fmri,,2,5,6,2,2,8.5,TI_2,indoor,2,0,N,182.4409,M,old,M,1.2722136384,M-2,M-2
468,6,20,203.746,12.3228,threat,0,OYSTER,hot_spring,outdoor,H,HO_Hi,1.453,ap101,control-fmri,,2,5,6,2,2,8.5,TO_2,outdoor,2,0,Hi,191.746,sourcehit,old,sourcehit,-1.1513577912,sourcehit-2,sourcehit-2
469,6,21,216.103,10.1932,threat,0,NET,foil,foil,CR,CR,2.5478,ap101,control-fmri,,2,5,6,2,2,8.5,F_0,foil,0,0,N,204.103,CR,new,CR,0.5380581045,CR-0,CR-0
470,6,22,226.3303,9.9853,threat,0,CROWN,motel,outdoor,H,HO_Hi,1.982,ap101,control-fmri,,2,5,6,2,2,8.5,TO_4,outdoor,4,0,Hi,214.3303,sourcehit,old,sourcehit,-0.1367899394,sourcehit-4,sourcehit-4
471,6,23,236.3499,9.758,threat,0,TABLE,beach,outdoor,H,HO_Hi,1.5204,ap101,control-fmri,,2,5,6,2,2,8.5,TO_4,outdoor,4,0,Hi,224.3499,sourcehit,old,sourcehit,-1.0220914903,sourcehit-4,sourcehit-4
472,6,24,246.1422,9.4139,threat,0,SCREWDRIVER,foil,foil,CR,CR,2.201,ap101,control-fmri,,2,5,6,2,2,8.5,F_0,foil,0,0,N,234.1422,CR,new,CR,-0.0814539793,CR-0,CR-0
473,6,25,255.5909,10.9902,threat,0,TOAST,courtroom,indoor,H,HI_Hi,2.2345,ap101,control-fmri,,2,5,6,2,2,8.5,TI_4,indoor,4,0,Hi,243.5909,sourcehit,old,sourcehit,0.3474792148,sourcehit-4,sourcehit-4
474,6,26,266.6155,12.319,threat,0,CARROT,harbor,outdoor,H,HO_Lo,2.9778,ap101,control-fmri,,2,5,6,2,2,8.5,TO_4,outdoor,4,0,Lo,254.6155,itemhit_lo,old,itemhit,-0.5126940758,itemhit_lo-4,itemhit-4
475,6,27,278.9705,10.4638,threat,0,ALLIGATOR,hospital_room,indoor,H,HI_Lo,3.5718,ap101,control-fmri,,2,5,6,2,2,8.5,TI_2,indoor,2,0,Lo,266.9705,itemhit_lo,old,itemhit,0.7253943767,itemhit_lo-2,itemhit-2
476,6,28,289.4686,10.3673,threat,0,SOOT,parlor,indoor,H,HI_Hi,1.4355,ap101,control-fmri,,2,5,6,2,2,8.5,TI_4,indoor,4,0,Hi,277.4686,sourcehit,old,sourcehit,-1.1849209999,sourcehit-4,sourcehit-4
477,6,29,299.8702,9.8031,threat,0,OPIUM,art_studio,indoor,H,HI_Hi,1.723,ap101,control-fmri,,2,5,6,2,2,8.5,TI_4,indoor,4,0,Hi,287.8702,sourcehit,old,sourcehit,-0.6335254283,sourcehit-4,sourcehit-4
478,6,30,309.7083,9.1423,threat,0,KALE,bedroom,indoor,H,HI_Hi,1.2198,ap101,control-fmri,,2,5,6,2,2,8.5,TI_4,indoor,4,0,Hi,297.7083,sourcehit,old,sourcehit,-1.598611521,sourcehit-4,sourcehit-4
479,6,31,318.8851,9.3849,threat,0,MANURE,foil,foil,CR,CR,1.8968,ap101,control-fmri,,2,5,6,2,2,8.5,F_0,foil,0,0,N,306.8851,CR,new,CR,-0.6248668279,CR-0,CR-0
480,6,32,328.3043,9.1735,threat,0,SAIL,garage,indoor,H,HI_Lo,2.4886,ap101,control-fmri,,2,5,6,2,2,8.5,TI_2,indoor,2,0,Lo,316.3043,itemhit_lo,old,itemhit,-1.5323453736,itemhit_lo-2,itemhit-2
481,6,33,337.5129,9.6291,threat,0,JUGGLER,auditorium,indoor,H,HI_Hi,1.7988,ap101,control-fmri,,2,5,6,2,2,8.5,TI_4,indoor,4,0,Hi,325.5129,sourcehit,old,sourcehit,-0.4881487872,sourcehit-4,sourcehit-4
482,6,34,347.1765,9.9258,threat,0,QUARTER,oil_refinery,outdoor,H,HO_Hi,1.2258,ap101,control-fmri,,2,5,6,2,2,8.5,TO_4,outdoor,4,0,Hi,335.1765,sourcehit,old,sourcehit,-1.5871041351,sourcehit-4,sourcehit-4
483,6,35,357.1366,11.2622,threat,0,DUST,foil,foil,CR,CR,2.2885,ap101,control-fmri,,2,5,6,2,2,8.5,F_0,foil,0,0,N,345.1366,CR,new,CR,0.0748531353,CR-0,CR-0
484,6,36,368.434,9.6797,threat,0,SUNBURN,foil,foil,CR,CR,1.8711,ap101,control-fmri,,2,5,6,2,2,8.5,F_0,foil,0,0,N,356.434,CR,new,CR,-0.6707764604,CR-0,CR-0
485,6,37,378.1483,10.7055,threat,0,BUCKET,athletic_field,indoor,H,HI_Hi,1.8675,ap101,control-fmri,,2,5,6,2,2,8.5,TI_4,indoor,4,0,Hi,366.1483,sourcehit,old,sourcehit,-0.3563892193,sourcehit-4,sourcehit-4
486,6,38,388.8886,10.648,threat,0,ZIPPER,castle,indoor,SM,SMO_Hi,2.2828,ap101,control-fmri,,2,5,6,2,2,8.5,TO_2,outdoor,2,0,Hi,376.8886,sourcemiss_hi,old,itemhit,-1.7090268577,sourcemiss_hi-2,itemhit-2
487,6,39,399.5715,10.0889,threat,0,RIFLE,foil,foil,CR,CR,2.0558,ap101,control-fmri,,2,5,6,2,2,8.5,F_0,foil,0,0,N,387.5715,CR,new,CR,-0.3408344711,CR-0,CR-0
488,6,40,409.6953,11.1805,threat,0,MAGICIAN,creek,outdoor,H,HO_Hi,1.8117,ap101,control-fmri,,2,5,6,2,2,8.5,TO_4,outdoor,4,0,Hi,397.6953,sourcehit,old,sourcehit,-0.4634079076,sourcehit-4,sourcehit-4
489,6,41,420.9105,9.5333,threat,0,ORNAMENT,foil,foil,CR,CR,3.1922,ap101,control-fmri,,2,5,6,2,2,8.5,F_0,foil,0,0,N,408.9105,CR,new,CR,1.6891930145,CR-0,CR-0
490,6,42,430.4788,9.8899,threat,0,DAISY,ice_shelf,foil,M,MI,2.2778,ap101,control-fmri,,2,5,6,2,2,8.5,TO_2,outdoor,2,0,N,418.4788,M,old,M,-0.2392513701,M-2,M-2
491,1,1,12.0224,9.1348,threat,0,FENCE,kindergarden_classroom,foil,M,MI,1.7149,ap102,control-fmri,,4,2,5,5,4,9,TI_2,indoor,2,0,N,0.0224,M,old,M,-1.0061671824,M-2,M-2
492,1,2,21.1846,10.6531,threat,0,HAWK,beauty_salon,foil,M,MI,1.5598,ap102,control-fmri,,4,2,5,5,4,9,TI_2,indoor,2,0,N,9.1846,M,old,M,-1.4593587897,M-2,M-2
493,1,3,31.873,9.6793,threat,0,DAMSEL,foil,foil,CR,CR,1.8035,ap102,control-fmri,,4,2,5,5,4,9,F_0,foil,0,0,N,19.873,CR,new,CR,-0.464508013,CR-0,CR-0
494,1,4,41.5788,12.3276,threat,0,DUST,foil,foil,CR,CR,1.8442,ap102,control-fmri,,4,2,5,5,4,9,F_0,foil,0,0,N,29.5788,CR,new,CR,-0.4024210635,CR-0,CR-0
495,1,5,53.9378,10.3719,threat,0,LAMB,castle,outdoor,H,HO_Lo,2.045,ap102,control-fmri,,4,2,5,5,4,9,TO_4,outdoor,4,0,Lo,41.9378,itemhit_lo,old,itemhit,-0.0995745882,itemhit_lo-4,itemhit-4
496,1,6,64.3361,9.2782,threat,0,SAIL,office_building,outdoor,H,HO_Hi,1.6261,ap102,control-fmri,,4,2,5,5,4,9,TO_4,outdoor,4,0,Hi,52.3361,sourcehit,old,sourcehit,-0.8396007488,sourcehit-4,sourcehit-4
497,1,7,73.6409,10.7128,threat,0,WALLET,bedroom,indoor,H,HI_Lo,1.6446,ap102,control-fmri,,4,2,5,5,4,9,TI_2,indoor,2,0,Lo,61.6409,itemhit_lo,old,itemhit,-0.7266126089,itemhit_lo-2,itemhit-2
498,1,8,84.3802,11.1893,threat,0,ICICLE,amphitheater,outdoor,H,HO_Hi,1.1882,ap102,control-fmri,,4,2,5,5,4,9,TO_4,outdoor,4,0,Hi,72.3802,sourcehit,old,sourcehit,-1.6104834501,sourcehit-4,sourcehit-4
499,1,9,95.5969,9.103,threat,0,BABY,foil,outdoor,FA,FAO_Lo,2.461,ap102,control-fmri,,4,2,5,5,4,9,F_0,foil,0,0,Lo,83.5969,FA,new,FA,0.5715098811,FA-0,FA-0
500,1,10,104.7268,10.555,threat,0,SHELL,botanical_garden,outdoor,H,HO_Hi,1.7809,ap102,control-fmri,,4,2,5,5,4,9,TO_2,outdoor,2,0,Hi,92.7268,sourcehit,old,sourcehit,-0.5670895769,sourcehit-2,sourcehit-2
501,1,11,115.3085,11.3401,threat,0,HATCHET,cubicle,indoor,H,HI_Lo,1.8968,ap102,control-fmri,,4,2,5,5,4,9,TI_2,indoor,2,0,Lo,103.3085,itemhit_lo,old,itemhit,-0.3316600894,itemhit_lo-2,itemhit-2
502,1,12,126.6759,9.9333,threat,0,TOAST,hotel,outdoor,H,HO_Lo,1.436,ap102,control-fmri,,4,2,5,5,4,9,TO_2,outdoor,2,0,Lo,114.6759,itemhit_lo,old,itemhit,-1.0532862631,itemhit_lo-2,itemhit-2
503,1,13,136.636,9.6932,threat,0,HOSE,pagoda,outdoor,H,HO_Lo,1.3367,ap102,control-fmri,,4,2,5,5,4,9,TO_2,outdoor,2,0,Lo,124.636,itemhit_lo,old,itemhit,-1.208792945,itemhit_lo-2,itemhit-2
504,1,14,146.3561,10.0981,threat,0,DRUG,badminton_court,foil,M,MI,2.416,ap102,control-fmri,,4,2,5,5,4,9,TI_2,indoor,2,0,N,134.3561,M,old,M,1.0423991355,M-2,M-2
505,1,15,156.4816,10.5711,threat,0,CANARY,foil,foil,CR,CR,1.8116,ap102,control-fmri,,4,2,5,5,4,9,F_0,foil,0,0,N,144.4816,CR,new,CR,-0.4521516422,CR-0,CR-0
506,1,16,167.0794,9.1814,threat,0,MEDAL,chalet,outdoor,H,HO_Lo,2.2755,ap102,control-fmri,,4,2,5,5,4,9,TO_4,outdoor,4,0,Lo,155.0794,itemhit_lo,old,itemhit,0.2613951015,itemhit_lo-4,itemhit-4
507,1,17,176.2875,11.9446,threat,0,BOWL,foil,indoor,FA,FAI_Lo,1.5361,ap102,control-fmri,,4,2,5,5,4,9,F_0,foil,0,0,Lo,164.2875,FA,new,FA,-0.8988833383,FA-0,FA-0
508,1,18,188.2593,10.1097,threat,0,OWL,engine_room,outdoor,SM,SMI_Hi,2.0898,ap102,control-fmri,,4,2,5,5,4,9,TI_4,indoor,4,0,Hi,176.2593,sourcemiss_hi,old,itemhit,-0.5774492779,sourcemiss_hi-4,itemhit-4
509,1,19,198.396,11.6236,threat,0,QUAIL,rock_arch,outdoor,H,HO_Hi,1.7491,ap102,control-fmri,,4,2,5,5,4,9,TO_2,outdoor,2,0,Hi,186.396,sourcehit,old,sourcehit,-0.6230705541,sourcehit-2,sourcehit-2
510,1,20,210.0465,12.3304,threat,0,PIGEON,driving_range,foil,M,MI,2.1831,ap102,control-fmri,,4,2,5,5,4,9,TO_2,outdoor,2,0,N,198.0465,M,old,M,0.3618812416,M-2,M-2
511,1,21,222.4041,9.9913,threat,1,MILK,foil,foil,CR,CR,1.7906,ap102,control-fmri,,4,2,5,5,4,9,F_0,foil,0,0,N,210.4041,CR,new,CR,-0.4841866776,CR-0,CR-0
512,1,22,232.4223,9.7582,threat,0,BOOT,foil,indoor,FA,FAI_Lo,1.9715,ap102,control-fmri,,4,2,5,5,4,9,F_0,foil,0,0,Lo,220.4223,FA,new,FA,-0.2066904442,FA-0,FA-0
513,1,23,242.2078,9.8983,threat,0,CRADLE,moat,outdoor,H,HO_Hi,1.7209,ap102,control-fmri,,4,2,5,5,4,9,TO_4,outdoor,4,0,Hi,230.2078,sourcehit,old,sourcehit,-0.6727140621,sourcehit-4,sourcehit-4
514,1,24,252.133,9.7651,threat,0,HAMMER,bayou,outdoor,H,HO_Lo,1.3663,ap102,control-fmri,,4,2,5,5,4,9,TO_4,outdoor,4,0,Lo,240.133,itemhit_lo,old,itemhit,-1.162438486,itemhit_lo-4,itemhit-4
515,1,25,261.9249,10.4725,threat,0,GARBAGE,foil,indoor,FA,FAI_Lo,2.0311,ap102,control-fmri,,4,2,5,5,4,9,F_0,foil,0,0,Lo,249.9249,FA,new,FA,-0.1119391891,FA-0,FA-0
516,1,26,272.4246,10.201,threat,0,DETECTIVE,crevasse,indoor,SM,SMO_Hi,1.9343,ap102,control-fmri,,4,2,5,5,4,9,TO_4,outdoor,4,0,Hi,260.4246,sourcemiss_hi,old,itemhit,-0.874567956,sourcemiss_hi-4,itemhit-4
517,1,27,282.6521,9.9234,threat,0,CHEESE,brewery,outdoor,SM,SMI_Hi,2.2263,ap102,control-fmri,,4,2,5,5,4,9,TI_4,indoor,4,0,Hi,270.6521,sourcemiss_hi,old,itemhit,-0.3166344897,sourcemiss_hi-4,itemhit-4
518,1,28,292.6031,9.7573,threat,0,BLANKET,foil,indoor,FA,FAI_Lo,2.2965,ap102,control-fmri,,4,2,5,5,4,9,F_0,foil,0,0,Lo,280.6031,FA,new,FA,0.3099900578,FA-0,FA-0
519,1,29,302.3878,9.8091,threat,0,SHRIMP,escalator,indoor,H,HI_Hi,2.4311,ap102,control-fmri,,4,2,5,5,4,9,TI_4,indoor,4,0,Hi,290.3878,sourcehit,old,sourcehit,0.5775277613,sourcehit-4,sourcehit-4
520,1,30,312.2237,9.0619,threat,0,WRENCH,stage,outdoor,SM,SMI_Hi,2.3607,ap102,control-fmri,,4,2,5,5,4,9,TI_4,indoor,4,0,Hi,300.2237,sourcemiss_hi,old,itemhit,-0.0598322367,sourcemiss_hi-4,itemhit-4
521,1,31,321.3126,9.3932,threat,0,ALLIGATOR,foil,indoor,FA,FAI_Lo,3.1669,ap102,control-fmri,,4,2,5,5,4,9,F_0,foil,0,0,Lo,309.3126,FA,new,FA,1.6937399314,FA-0,FA-0
522,1,32,330.7329,11.2701,threat,0,CAMERA,gazebo,indoor,SM,SMO_Lo,1.4936,ap102,control-fmri,,4,2,5,5,4,9,TO_2,outdoor,2,0,Lo,318.7329,itemhit_lo,old,itemhit,-0.9630829914,itemhit_lo-2,itemhit-2
523,1,33,342.0302,9.9142,threat,0,TRAY,foil,foil,CR,CR,1.6525,ap102,control-fmri,,4,2,5,5,4,9,F_0,foil,0,0,N,330.0302,CR,new,CR,-0.6948551721,CR-0,CR-0
524,1,34,351.9714,10.9983,threat,0,BONE,control_room,outdoor,SM,SMI_Lo,2.5977,ap102,control-fmri,,4,2,5,5,4,9,TI_2,indoor,2,0,Lo,339.9714,itemhit_lo,old,itemhit,0.7659696526,itemhit_lo-2,itemhit-2
525,1,35,362.9972,9.3785,threat,0,MUSTARD,kitchenette,indoor,H,HI_Hi,1.83,ap102,control-fmri,,4,2,5,5,4,9,TI_4,indoor,4,0,Hi,350.9972,sourcehit,old,sourcehit,-0.4806535398,sourcehit-4,sourcehit-4
526,1,36,372.4026,11.6833,threat,0,TABLE,ballroom,outdoor,SM,SMI_Lo,2.0861,ap102,control-fmri,,4,2,5,5,4,9,TI_2,indoor,2,0,Lo,360.4026,itemhit_lo,old,itemhit,-0.0352107954,itemhit_lo-2,itemhit-2
527,1,37,384.1128,9.5379,threat,0,FORK,foil,foil,CR,CR,2.7528,ap102,control-fmri,,4,2,5,5,4,9,F_0,foil,0,0,N,372.1128,CR,new,CR,0.9836281339,CR-0,CR-0
528,1,38,393.6781,9.4214,threat,0,SEAWEED,beach,outdoor,no response,no response,999,ap102,control-fmri,,4,2,5,5,4,9,TO_2,outdoor,2,0,N,381.6781,nuisance,old,nuisance,,nuisance-2,nuisance-2
529,1,39,403.1264,9.119,threat,0,SALAD,foil,outdoor,FA,FAO_Hi,2.0354,ap102,control-fmri,,4,2,5,5,4,9,F_0,foil,0,0,Hi,391.1264,FA,new,FA,-0.1051031086,FA-0,FA-0
530,1,40,412.2726,9.6364,threat,0,CUCUMBER,elevator,indoor,H,HI_Lo,3.1754,ap102,control-fmri,,4,2,5,5,4,9,TI_4,indoor,4,0,Lo,400.2726,itemhit_lo,old,itemhit,1.670664619,itemhit_lo-4,itemhit-4
531,1,41,421.9366,9.2544,threat,0,BENCH,foil,foil,CR,CR,2.3375,ap102,control-fmri,,4,2,5,5,4,9,F_0,foil,0,0,N,409.9366,CR,new,CR,0.3500971723,CR-0,CR-0
532,1,42,431.2179,9.1501,threat,0,WINE,bookstore,indoor,H,HI_Hi,2.4278,ap102,control-fmri,,4,2,5,5,4,9,TI_4,indoor,4,0,Hi,419.2179,sourcehit,old,sourcehit,0.5717184146,sourcehit-4,sourcehit-4
533,2,1,12.0038,9.949,safe,0,GLOVE,foil,outdoor,FA,FAO_Lo,2.2916,ap102,control-fmri,,4,2,5,5,4,9,F_0,foil,0,0,Lo,0.0038,FA,new,FA,0.3022001056,FA-0,FA-0
534,2,2,21.9827,10.1066,safe,0,BUTTER,foil,indoor,FA,FAI_Lo,1.8946,ap102,control-fmri,,4,2,5,5,4,9,F_0,foil,0,0,Lo,9.9827,FA,new,FA,-0.328945,FA-0,FA-0
535,2,3,32.1189,9.1151,safe,0,ROSARY,foil,foil,CR,CR,1.2767,ap102,control-fmri,,4,2,5,5,4,9,F_0,foil,0,0,N,20.1189,CR,new,CR,-1.2681297576,CR-0,CR-0
536,2,4,41.2628,10.5709,safe,0,BATON,arch,indoor,SM,SMO_Hi,2.7658,ap102,control-fmri,,4,2,5,5,4,9,TO_2,outdoor,2,0,Hi,29.2628,sourcemiss_hi,old,itemhit,0.7142049112,sourcemiss_hi-2,itemhit-2
537,2,5,51.8627,9.4176,safe,0,VODKA,bazaar,indoor,H,HI_Hi,1.9955,ap102,control-fmri,,4,2,5,5,4,9,TI_4,indoor,4,0,Hi,39.8627,sourcehit,old,sourcehit,-0.1893060014,sourcehit-4,sourcehit-4
538,2,6,61.3094,9.3765,safe,0,KILT,observatory,indoor,SM,SMO_Lo,2.8211,ap102,control-fmri,,4,2,5,5,4,9,TO_4,outdoor,4,0,Lo,49.3094,itemhit_lo,old,itemhit,1.1158205363,itemhit_lo-4,itemhit-4
539,2,7,70.7146,9.9327,safe,0,CROWN,candy_store,outdoor,SM,SMI_Lo,2.3572,ap102,control-fmri,,4,2,5,5,4,9,TI_2,indoor,2,0,Lo,58.7146,itemhit_lo,old,itemhit,0.3893396726,itemhit_lo-2,itemhit-2
540,2,8,80.6761,11.6812,safe,0,SHOWER,lighthouse,outdoor,H,HO_Lo,3.4498,ap102,control-fmri,,4,2,5,5,4,9,TO_4,outdoor,4,0,Lo,68.6761,itemhit_lo,old,itemhit,2.1003829829,itemhit_lo-4,itemhit-4
541,2,9,92.3861,9.3913,safe,0,CAGE,islet,indoor,SM,SMO_Lo,1.5446,ap102,control-fmri,,4,2,5,5,4,9,TO_2,outdoor,2,0,Lo,80.3861,itemhit_lo,old,itemhit,-0.8832155112,itemhit_lo-2,itemhit-2
542,2,10,101.8061,9.6878,safe,0,HIGHWAY,optician,foil,M,MI,2.3081,ap102,control-fmri,,4,2,5,5,4,9,TI_2,indoor,2,0,N,89.8061,M,old,M,0.7271227046,M-2,M-2
543,2,11,111.5227,9.2763,safe,0,ORCHID,stable,indoor,H,HI_Hi,3.0557,ap102,control-fmri,,4,2,5,5,4,9,TI_2,indoor,2,0,Hi,99.5227,sourcehit,old,sourcehit,1.6770786525,sourcehit-2,sourcehit-2
544,2,12,120.8283,9.7545,safe,0,ORANGE,gas_station,indoor,SM,SMO_Hi,3.7775,ap102,control-fmri,,4,2,5,5,4,9,TO_2,outdoor,2,0,Hi,108.8283,sourcemiss_hi,old,itemhit,2.6472915133,sourcemiss_hi-2,itemhit-2
545,2,13,130.6116,10.0965,safe,0,TORNADO,foil,foil,CR,CR,1.804,ap102,control-fmri,,4,2,5,5,4,9,F_0,foil,0,0,N,118.6116,CR,new,CR,-0.463745274,CR-0,CR-0
546,2,14,140.7371,10.5535,safe,0,RACQUET,foil,foil,CR,CR,1.5541,ap102,control-fmri,,4,2,5,5,4,9,F_0,foil,0,0,N,128.7371,CR,new,CR,-0.844962195,CR-0,CR-0
547,2,15,151.3196,9.8078,safe,0,CANDY,subway_interior,indoor,H,HI_Hi,2.6161,ap102,control-fmri,,4,2,5,5,4,9,TI_2,indoor,2,0,Hi,139.3196,sourcehit,old,sourcehit,0.9032032574,sourcehit-2,sourcehit-2
548,2,16,161.1563,11.2675,safe,0,PAN,train_station,outdoor,SM,SMI_Lo,1.4148,ap102,control-fmri,,4,2,5,5,4,9,TI_4,indoor,4,0,Lo,149.1563,itemhit_lo,old,itemhit,-1.0864860783,itemhit_lo-4,itemhit-4
549,2,17,172.457,9.8922,safe,0,SCREWDRIVER,foil,outdoor,FA,FAO_Lo,1.9226,ap102,control-fmri,,4,2,5,5,4,9,F_0,foil,0,0,Lo,160.457,FA,new,FA,-0.2844309875,FA-0,FA-0
550,2,18,182.3782,12.3289,safe,0,TELEGRAPH,pulpit,indoor,H,HI_Hi,1.6303,ap102,control-fmri,,4,2,5,5,4,9,TI_4,indoor,4,0,Hi,170.3782,sourcehit,old,sourcehit,-0.8322070348,sourcehit-4,sourcehit-4
551,2,19,194.736,9.9905,safe,0,BIBLE,highway,indoor,SM,SMO_Lo,1.7133,ap102,control-fmri,,4,2,5,5,4,9,TO_4,outdoor,4,0,Lo,182.736,itemhit_lo,old,itemhit,-0.6190264151,itemhit_lo-4,itemhit-4
552,2,20,204.7557,10.9958,safe,0,KEG,butchers_shop,indoor,H,HI_Lo,2.3894,ap102,control-fmri,,4,2,5,5,4,9,TI_2,indoor,2,0,Lo,192.7557,itemhit_lo,old,itemhit,0.4397658072,itemhit_lo-2,itemhit-2
553,2,21,215.7806,9.1781,safe,0,BANANA,movie_theater,indoor,H,HI_Hi,1.8264,ap102,control-fmri,,4,2,5,5,4,9,TI_4,indoor,4,0,Hi,203.7806,sourcehit,old,sourcehit,-0.4869910089,sourcehit-4,sourcehit-4
554,2,22,224.9876,11.9441,safe,0,PENCIL,kasbah,foil,M,MI,2.1736,ap102,control-fmri,,4,2,5,5,4,9,TO_2,outdoor,2,0,N,212.9876,M,old,M,0.3341228904,M-2,M-2
555,2,23,236.9612,10.1985,safe,0,PIANO,garage,outdoor,SM,SMI_Hi,2.9246,ap102,control-fmri,,4,2,5,5,4,9,TI_2,indoor,2,0,Hi,224.9612,sourcemiss_hi,old,itemhit,1.0176290017,sourcemiss_hi-2,itemhit-2
556,2,24,247.1887,9.0593,safe,0,ENVELOPE,motel,outdoor,H,HO_Lo,2.3513,ap102,control-fmri,,4,2,5,5,4,9,TO_4,outdoor,4,0,Lo,235.1887,itemhit_lo,old,itemhit,0.3801001014,itemhit_lo-4,itemhit-4
557,2,25,256.277,11.3362,safe,0,STORK,ice_floe,outdoor,H,HO_Hi,2.3619,ap102,control-fmri,,4,2,5,5,4,9,TO_2,outdoor,2,0,Hi,244.277,sourcehit,old,sourcehit,0.4557075217,sourcehit-2,sourcehit-2
558,2,26,267.6427,9.7559,safe,0,BALLOON,foil,outdoor,FA,FAO_Lo,2.0012,ap102,control-fmri,,4,2,5,5,4,9,F_0,foil,0,0,Lo,255.6427,FA,new,FA,-0.1594737953,FA-0,FA-0
559,2,27,277.4276,10.709,safe,0,TRIBE,foil,foil,CR,CR,2.3189,ap102,control-fmri,,4,2,5,5,4,9,F_0,foil,0,0,N,265.4276,CR,new,CR,0.3217232839,CR-0,CR-0
560,2,28,288.1656,9.764,safe,0,SCOOTER,river,outdoor,H,HO_Hi,3.1154,ap102,control-fmri,,4,2,5,5,4,9,TO_4,outdoor,4,0,Hi,276.1656,sourcehit,old,sourcehit,1.7821750153,sourcehit-4,sourcehit-4
561,2,29,297.959,9.6882,safe,0,ANT,foil,foil,CR,CR,3.2046,ap102,control-fmri,,4,2,5,5,4,9,F_0,foil,0,0,N,285.959,CR,new,CR,1.6728390379,CR-0,CR-0
562,2,30,307.6763,9.5374,safe,0,PENNY,foil,indoor,FA,FAI_Lo,1.9789,ap102,control-fmri,,4,2,5,5,4,9,F_0,foil,0,0,Lo,295.6763,FA,new,FA,-0.1949260267,FA-0,FA-0
563,2,31,317.2428,10.3725,safe,0,VINE,restaurant,indoor,H,HI_Hi,1.6585,ap102,control-fmri,,4,2,5,5,4,9,TI_4,indoor,4,0,Hi,305.2428,sourcehit,old,sourcehit,-0.7825635268,sourcehit-4,sourcehit-4
