index,run,trial,onset,duration,cond,repType,repCount,word,pic,resp,respRT,ISIresp,ISIrespRT
1,1,1,10.0041,1.9982,WO,4,1,BROOM,islet,R,2.0087,NR,3.0000
2,1,2,22.0714,-10.0706,WI,4,1,SHOWER,throne_room,R,2.8994,NR,3.0000
3,1,3,34.1319,-22.1304,WI,4,1,LIME,bathroom,R,1.7348,NR,3.0000
4,1,4,46.1952,-34.1940,WI,2,1,TOAST,dining_room,R,2.4779,NR,3.0000
5,1,5,58.2580,-46.2568,WO,4,1,SQUIRREL,phone_booth,R,2.3164,NR,3.0000
6,1,6,70.3207,-58.3192,WI,4,1,FLASK,drugstore,R,2.3131,NR,3.0000
7,1,7,82.3844,-70.3823,WI,2,1,BAYONET,bus_interior,NR,999.0000,R,3.0548
8,1,8,94.4481,-82.4469,WI,4,2,LIME,bathroom,R,1.7962,NR,3.0000
9,1,9,106.5116,-94.5104,WO,4,1,PUMPKIN,forest_needleleaf,R,1.6892,NR,3.0000
10,1,10,118.5746,-106.5734,WI,4,1,RAKE,home_office,R,2.1957,NR,3.0000
11,1,11,130.6374,-118.6358,WO,4,1,SALAD,ice_floe,R,1.8371,NR,3.0000
12,1,12,142.7005,-130.6993,WO,4,2,PUMPKIN,forest_needleleaf,R,1.1358,NR,3.0000
13,1,13,154.7632,-142.7616,WI,4,2,SHOWER,throne_room,R,1.2598,NR,3.0000
14,1,14,166.8269,-154.8258,WO,2,1,DESK,ocean,R,2.1270,NR,3.0000
15,1,15,178.8897,-166.8880,WI,4,1,SEAL,car_interior,R,1.6357,NR,3.0000
16,1,16,190.9529,-178.9520,WO,2,1,RASH,raceway,R,1.8478,NR,3.0000
17,1,17,203.0154,-191.0134,WI,4,2,FLASK,drugstore,R,0.8567,NR,3.0000
18,1,18,215.0790,-203.0769,WO,4,2,SALAD,ice_floe,R,0.9566,NR,3.0000
19,1,19,227.1429,-215.1417,WO,4,1,TULIP,manufactured_home,R,1.8605,NR,3.0000
20,1,20,239.2060,-227.2045,WO,4,2,BROOM,islet,R,1.4654,NR,3.0000
21,1,21,251.2691,-239.2683,WI,2,1,SOUP,subway_interior,R,1.9752,NR,3.0000
22,1,22,263.3322,-251.3303,WI,4,1,BOOT,laundromat,R,2.0343,NR,3.0000
23,1,23,275.3955,-263.3942,WO,4,1,ROSE,igloo,R,1.9389,NR,3.0000
24,1,24,287.4593,-275.4585,WO,4,2,SQUIRREL,phone_booth,R,0.8710,NR,3.0000
25,1,25,299.5217,-287.5196,WI,4,2,RAKE,home_office,R,1.8748,NR,3.0000
26,1,26,311.5854,-299.5834,WI,2,1,MOUSE,clothing_store,R,2.0350,NR,3.0000
27,1,27,323.6498,-311.6489,WI,2,1,PIGEON,parking_garage,R,1.3657,NR,3.0000
28,1,28,335.7125,-323.7106,WO,4,1,OPIUM,patio,R,1.4107,NR,3.0000
29,1,29,347.7766,-335.7753,WO,2,1,GLOBE,rope_bridge,R,1.8472,NR,3.0000
30,1,30,359.8395,-347.8372,WO,2,1,RABBIT,bamboo_forest,R,2.1171,NR,3.0000
31,1,31,371.9036,-359.9019,WI,2,1,PASTE,music_store,R,2.1999,NR,3.0000
32,1,32,383.9676,-371.9663,WO,2,1,SNAIL,playground,R,1.6947,NR,3.0000
33,1,33,396.0307,-384.0291,WO,2,1,OWL,pagoda,R,2.5275,NR,3.0000
34,1,34,408.0949,-396.0934,WI,4,1,ALLIGATOR,elevator,R,1.6146,NR,3.0000
35,1,35,420.1581,-408.1573,WI,2,1,WORM,optician,R,2.2415,NR,3.0000
36,1,36,432.2206,-420.2196,WI,4,2,SEAL,car_interior,R,1.5633,NR,3.0000
37,1,37,444.2838,-432.2824,WO,4,2,OPIUM,patio,R,1.0799,NR,3.0000
38,1,38,456.3470,-444.3448,WO,4,2,TULIP,manufactured_home,R,1.4276,NR,3.0000
39,1,39,468.4114,-456.4096,WO,2,1,CAMERA,castle,R,2.3702,NR,3.0000
40,1,40,480.4749,-468.4732,WI,4,2,BOOT,laundromat,R,1.2197,NR,3.0000
41,1,41,492.5381,-480.5361,WO,4,2,ROSE,igloo,R,1.9697,NR,3.0000
42,1,42,504.6025,-492.6011,WI,4,2,ALLIGATOR,elevator,R,1.0944,NR,3.0000
43,2,19,10.0012,1.9996,WO,4,1,CANNON,hill,R,2.0738,NR,3.0000
44,2,20,22.0564,-10.0553,WO,2,1,NIGHTGOWN,plaza,R,1.9508,NR,3.0000
45,2,21,34.1112,-22.1095,WI,4,1,BOWL,jacuzzi,R,1.9474,NR,3.0000
46,2,22,46.1658,-34.1647,WO,4,1,SARDINE,mountain_snowy,R,1.6754,NR,3.0000
47,2,23,58.2202,-46.2181,WO,2,1,SYRUP,boardwalk,R,2.7856,NR,3.0000
48,2,24,70.2753,-58.2731,WO,2,1,DAISY,gas_station,R,1.6330,NR,3.0000
49,2,25,82.3308,-70.3286,WI,4,1,NET,restaurant_kitchen,R,1.8408,NR,3.0000
50,2,26,94.3865,-82.3853,WI,4,1,BATON,living_room,R,1.7344,NR,3.0000
51,2,27,106.4409,-94.4397,WO,2,1,BROWNIE,bayou,R,2.9426,NR,3.0000
52,2,28,118.4951,-106.4930,WO,4,1,ACCORDIAN,creek,R,1.3785,NR,3.0000
53,2,29,130.5504,-118.5485,WI,4,1,CHICKEN,archive,R,1.3170,NR,3.0000
54,2,30,142.6059,-130.6047,WO,4,2,CANNON,hill,R,1.6374,NR,3.0000
55,2,31,154.6601,-142.6593,WI,4,2,NET,restaurant_kitchen,R,1.5659,NR,3.0000
56,2,32,166.7142,-154.7115,WO,4,1,LAMP,hot_spring,R,1.8204,NR,3.0000
57,2,33,178.7699,-166.7688,WI,2,1,BRAIN,lecture_room,R,1.5294,NR,3.0000
58,2,34,190.8241,-178.8230,WI,4,1,WALRUS,assembly_line,R,1.7817,NR,3.0000
59,2,35,202.8782,-190.8761,WO,4,1,THONG,rice_paddy,R,1.7307,NR,3.0000
60,2,36,214.9341,-202.9318,WI,2,1,SOAP,bookstore,R,1.5417,NR,3.0000
61,2,37,226.9897,-214.9885,WO,4,2,LAMP,hot_spring,R,1.3909,NR,3.0000
62,2,38,239.0442,-227.0421,WI,4,2,CHICKEN,archive,R,1.4992,NR,3.0000
63,2,39,251.0995,-239.0985,WI,2,1,WHEAT,closet,R,1.7697,NR,3.0000
64,2,40,263.1538,-251.1525,WI,4,1,ROPE,beauty_salon,R,2.1599,NR,3.0000
65,2,41,275.2082,-263.2068,WO,2,1,LANTERN,greenhouse,R,2.4498,NR,3.0000
66,2,42,287.2626,-275.2617,WO,2,1,WALLET,house,R,2.0015,NR,3.0000
67,2,43,299.3172,-287.3155,WO,4,1,APPLE,rock_arch,R,1.9871,NR,3.0000
68,2,44,311.3720,-299.3698,WI,2,1,TYPEWRITER,stable,R,2.1840,NR,3.0000
69,2,45,323.4275,-311.4250,WO,4,2,APPLE,rock_arch,R,0.9396,NR,3.0000
70,2,46,335.4835,-323.4822,WI,2,1,SWORD,cubicle,R,1.8502,NR,3.0000
71,2,47,347.5379,-335.5366,WO,4,2,SARDINE,mountain_snowy,R,1.8579,NR,3.0000
72,2,48,359.5928,-347.5907,WI,2,1,LAMB,art_gallery,R,1.5847,NR,3.0000
73,2,49,371.6480,-359.6463,WO,4,1,TWEEZERS,formal_garden,R,1.8624,NR,3.0000
74,2,50,383.7029,-371.7014,WI,4,2,BOWL,jacuzzi,R,0.9024,NR,3.0000
75,2,51,395.7582,-383.7563,WO,4,2,THONG,rice_paddy,R,2.4638,NR,3.0000
76,2,52,407.8130,-395.8114,WI,4,1,MUSSEL,attic,R,2.3135,NR,3.0000
77,2,53,419.8683,-407.8663,WI,4,2,WALRUS,assembly_line,R,2.7544,NR,3.0000
78,2,54,431.9237,-419.9226,WI,4,2,MUSSEL,attic,R,1.2110,NR,3.0000
79,2,55,443.9779,-431.9747,WO,2,1,SNOW,mausoleum,NR,999.0000,NR,3.0000
80,2,56,456.0350,-444.0327,WI,2,1,SUBMARINE,jewelry_shop,R,1.7215,NR,3.0000
81,2,57,468.0904,-456.0883,WI,4,2,BATON,living_room,R,1.6608,NR,3.0000
82,2,58,480.1463,-468.1443,WI,4,2,ROPE,beauty_salon,R,1.4119,NR,3.0000
83,2,59,492.2017,-480.2005,WO,4,2,TWEEZERS,formal_garden,R,1.0128,NR,3.0000
84,2,60,504.2561,-492.2543,WO,4,2,ACCORDIAN,creek,R,1.7005,NR,3.0000
85,3,37,10.0029,1.9987,WI,2,1,SPONGE,music_studio,R,1.7980,NR,3.0000
86,3,38,22.0626,-10.0611,WO,4,1,HONEY,corral,R,1.8371,NR,3.0000
87,3,39,34.1212,-22.1196,WO,4,1,MONKEY,marsh,R,1.8349,NR,3.0000
88,3,40,46.1794,-34.1772,WI,4,1,CHERRY,burial_chamber,R,2.0608,NR,3.0000
89,3,41,58.2383,-46.2370,WO,4,1,FOX,dam,R,1.8883,NR,3.0000
90,3,42,206.0081,-194.0071,WO,4,1,FORK,driving_range,R,1.9042,NR,3.0000
91,3,43,218.0656,-206.0636,WI,4,1,SLIPPER,volleyball_court,R,1.3583,NR,3.0000
92,3,44,230.1241,-218.1228,WO,2,1,PYTHON,bridge,R,1.4099,NR,3.0000
93,3,45,242.1818,-230.1796,WI,4,2,CHERRY,burial_chamber,R,1.0312,NR,3.0000
94,3,46,254.2417,-242.2403,WO,4,2,FORK,driving_range,R,0.8833,NR,3.0000
95,3,47,266.2996,-254.2989,WI,4,1,PENCIL,galley,R,1.8094,NR,3.0000
96,3,48,278.3575,-266.3552,WI,2,1,TOWEL,garage,R,1.8078,NR,3.0000
97,3,49,290.4161,-278.4149,WI,2,1,FENCE,sauna,R,2.1407,NR,3.0000
98,3,50,302.4740,-290.4720,WO,4,1,SPATULA,cottage_garden,R,1.5477,NR,3.0000
99,3,51,314.5332,-302.5313,WI,4,1,FAN,chicken_coop,R,1.6178,NR,3.0000
100,3,52,326.5917,-314.5906,WO,2,1,BALLOON,crevasse,R,1.7989,NR,3.0000
101,3,53,338.6498,-326.6484,WO,4,1,TOBACCO,amusement_park,R,1.8984,NR,3.0000
102,3,54,350.7079,-338.7071,WI,2,1,DETECTIVE,reception,R,2.3690,NR,3.0000
103,3,55,362.7653,-350.7630,WO,2,1,TEETH,market,R,2.3180,NR,3.0000
104,3,56,374.8243,-362.8232,WI,4,1,RIFLE,hospital_room,R,2.8210,NR,3.0000
105,3,57,386.8820,-374.8804,WO,4,1,WHIP,fountain,R,2.3794,NR,3.0000
106,3,58,398.9408,-386.9388,WI,4,1,BENCH,childs_room,R,1.4739,NR,3.0000
107,3,59,410.9996,-398.9988,WO,4,2,HONEY,corral,R,1.0627,NR,3.0000
108,3,60,423.0569,-411.0554,WO,2,1,HELMET,cliff,R,2.0350,NR,3.0000
109,3,61,435.1156,-423.1145,WI,2,1,HARPOON,bakery,R,1.4890,NR,3.0000
110,3,62,447.1735,-435.1722,WI,4,2,PENCIL,galley,R,1.2053,NR,3.0000
111,3,63,459.2319,-447.2301,WI,4,2,SLIPPER,volleyball_court,R,0.9801,NR,3.0000
112,3,64,471.2905,-459.2884,WO,4,2,SPATULA,cottage_garden,R,1.2950,NR,3.0000
113,3,65,483.3494,-471.3477,WI,4,1,EMPEROR,basement,R,1.5989,NR,3.0000
114,3,66,495.4084,-483.4061,WO,4,2,TOBACCO,amusement_park,R,1.5076,NR,3.0000
115,3,67,507.4675,-495.4660,WI,4,2,FAN,chicken_coop,R,1.4683,NR,3.0000
116,3,68,519.5263,-507.5251,WI,4,2,RIFLE,hospital_room,R,1.4967,NR,3.0000
117,3,69,531.5843,-519.5822,WO,4,2,MONKEY,marsh,R,1.8088,NR,3.0000
118,3,70,543.6431,-531.6422,WO,2,1,DOVE,pasture,R,2.9125,NR,3.0000
119,3,71,555.7014,-543.6996,WI,4,2,EMPEROR,basement,R,1.5684,NR,3.0000
120,3,72,567.7600,-555.7569,WO,4,2,FOX,dam,R,1.5541,NR,3.0000
121,3,73,579.8203,-567.8188,WO,4,2,WHIP,fountain,R,1.2302,NR,3.0000
122,3,74,591.8786,-579.8769,WI,2,1,BRACELET,dentists_office,R,2.2196,NR,3.0000
123,3,75,603.9372,-591.9362,WI,4,2,BENCH,childs_room,R,1.2912,NR,3.0000
124,3,76,615.9953,-603.9938,WO,2,1,SHEEP,corn_field,R,1.6625,NR,3.0000
125,3,77,628.0537,-616.0520,WI,2,1,QUARTER,kitchenette,R,1.6619,NR,3.0000
126,3,78,640.1124,-628.1113,WO,2,1,SANDAL,canal,R,2.6672,NR,3.0000
127,4,55,10.0020,2.0001,WI,4,1,PLUG,airplane_cabin,R,2.0038,NR,3.0000
128,4,56,22.0633,-10.0613,WI,4,1,WITCH,ice_cream_parlor,R,1.6832,NR,3.0000
129,4,57,34.1233,-22.1216,WO,2,1,SCAB,boat_deck,R,1.8986,NR,3.0000
130,4,58,46.1824,-34.1802,WO,4,1,EASEL,promenade_deck,R,2.2998,NR,3.0000
131,4,59,58.2421,-46.2412,WO,4,1,HAWK,orchard,R,1.8828,NR,3.0000
132,4,60,70.3010,-58.2990,WI,2,1,FROG,nursery,R,1.5097,NR,3.0000
133,4,61,82.3605,-70.3597,WO,2,1,ANCHOR,ice_shelf,R,1.9055,NR,3.0000
134,4,62,94.4204,-82.4193,WI,4,1,TURTLE,bedroom,R,2.4080,NR,3.0000
135,4,63,106.4792,-94.4782,WI,4,1,TROPHY,museum,R,1.8350,NR,3.0000
136,4,64,118.5374,-106.5347,WO,4,1,OATMEAL,lock_chamber,R,2.5938,NR,3.0000
137,4,65,130.5981,-118.5964,WO,2,1,CANE,river,R,1.5381,NR,3.0000
138,4,66,142.6572,-130.6559,WI,2,1,SCOTCH,classroom,R,1.7098,R,5.6995
139,4,67,154.7163,-142.7146,WI,4,2,TURTLE,bedroom,R,1.7606,NR,3.0000
140,4,68,166.7753,-154.7736,WO,2,1,MAP,palace,R,1.5755,NR,3.0000
141,4,69,178.8344,-166.8326,WI,4,1,SHOVEL,orchestra_pit,R,2.0381,NR,3.0000
142,4,70,190.8943,-178.8924,WO,4,1,KNIFE,chalet,R,1.9462,NR,3.0000
143,4,71,202.9540,-190.9526,WI,4,2,PLUG,airplane_cabin,R,1.1906,NR,3.0000
144,4,72,215.0132,-203.0109,WO,2,1,CLARINET,lido_deck,R,1.7720,NR,3.0000
145,4,73,227.0729,-215.0697,WO,4,1,PEDAL,harbor,R,1.7535,NR,3.0000
146,4,74,239.1335,-227.1302,WO,4,2,PEDAL,harbor,R,2.1445,NR,3.0000
147,4,75,251.1944,-239.1935,WI,4,2,TROPHY,museum,R,1.0368,NR,3.0000
148,4,76,263.2530,-251.2519,WO,4,2,HAWK,orchard,R,1.3222,NR,3.0000
149,4,77,275.3118,-263.3097,WO,2,1,POTATO,nuclear_power_plant,R,2.3081,NR,3.0000
150,4,78,287.3713,-275.3706,WI,4,1,BUCKET,auditorium,R,2.0849,NR,3.0000
151,4,79,299.4296,-287.4277,WO,4,1,ICICLE,forest_path,R,2.1219,NR,3.0000
152,4,80,311.4896,-299.4883,WO,4,2,KNIFE,chalet,R,2.5951,NR,3.0000
153,4,81,323.5485,-311.5467,WI,4,2,SHOVEL,orchestra_pit,R,1.3140,NR,3.0000
154,4,82,335.6084,-323.6063,WI,4,1,OTTER,pulpit,UR,1.7426,NR,3.0000
155,4,83,347.6681,-335.6671,WO,2,1,TORNADO,garbage_dump,R,2.2101,NR,3.0000
156,4,84,359.7268,-347.7245,WO,4,2,ICICLE,forest_path,R,1.4959,R,3.0580
157,4,85,371.7865,-359.7847,WI,4,2,OTTER,pulpit,R,1.1268,NR,3.0000
158,4,86,383.8461,-371.8450,WO,4,1,HIGHWAY,putting_green,R,2.1846,NR,3.0000
159,4,87,395.9052,-383.9042,WI,4,2,WITCH,ice_cream_parlor,R,1.4140,NR,3.0000
160,4,88,407.9640,-395.9625,WI,2,1,POSTER,diner,R,1.7142,R,9.2051
161,4,89,420.0233,-408.0211,WI,2,1,MUFFIN,catacomb,R,2.1211,NR,3.0000
162,4,90,432.0835,-420.0818,WO,4,2,OATMEAL,lock_chamber,R,2.1722,NR,3.0000
163,4,91,444.1431,-432.1424,WI,4,2,BUCKET,auditorium,R,1.9207,NR,3.0000
164,4,92,456.2021,-444.2009,WI,2,1,CORAL,restaurant,R,2.0304,NR,3.0000
165,4,93,468.2609,-456.2598,WO,4,2,HIGHWAY,putting_green,R,1.8954,NR,3.0000
166,4,94,480.3196,-468.3186,WO,4,2,EASEL,promenade_deck,R,1.5045,NR,3.0000
167,4,95,492.3786,-480.3773,WI,2,1,RUDDER,auto_factory,UR,2.1072,NR,3.0000
168,4,96,504.4376,-492.4367,WI,2,1,CRAB,swimming_pool,R,1.5300,NR,3.0000
169,5,73,10.0018,1.9991,WO,2,1,PENNY,bullring,R,1.6933,NR,3.0000
170,5,74,22.0659,-10.0637,WI,4,1,ELEPHANT,operating_room,R,2.6002,NR,3.0000
171,5,75,34.1298,-22.1279,WO,2,1,ARMOR,landing_deck,R,2.7565,NR,3.0000
172,5,76,46.1930,-34.1917,WO,4,1,BANANA,iceberg,R,2.0639,NR,3.0000
173,5,77,58.2559,-46.2545,WI,4,1,SUNBURN,computer_room,R,2.5968,NR,3.0000
174,5,78,70.3185,-58.3169,WO,4,1,PAN,pavilion,R,2.8597,NR,3.0000
175,5,79,82.3813,-70.3793,WI,4,1,SAIL,ice_skating_rink,R,2.1071,NR,3.0000
176,5,80,94.4453,-82.4436,WO,4,2,BANANA,iceberg,R,1.3793,NR,3.0000
177,5,81,106.5083,-94.5070,WI,2,1,MEDICINE,apse,R,2.3911,NR,3.0000
178,5,82,118.5716,-106.5701,WO,4,1,PUDDLE,basilica,R,1.8331,NR,3.0000
179,5,83,130.6346,-118.6328,WO,4,1,NOODLE,butte,R,2.4679,NR,3.0000
180,5,84,142.6977,-130.6966,WO,4,1,BANDAGE,beach,R,1.5492,NR,3.0000
181,5,85,154.7605,-142.7596,WI,4,1,MAGICIAN,kindergarden_classroom,R,2.6297,NR,3.0000
182,5,86,166.8230,-154.8218,WI,4,2,MAGICIAN,kindergarden_classroom,R,1.2821,NR,3.0000
183,5,87,178.8859,-166.8842,WI,2,1,CROWN,supermarket,R,2.5172,UR,10.4475
184,5,88,190.9489,-178.9474,WO,4,2,PAN,pavilion,R,1.1538,NR,3.0000
185,5,89,203.0119,-191.0097,WI,4,1,ORNAMENT,stage,R,1.9311,NR,3.0000
186,5,90,215.0762,-203.0749,WO,2,1,KEG,herb_garden,R,2.0758,NR,3.0000
187,5,91,227.1401,-215.1393,WO,2,1,ENVELOPE,canyon,R,1.6335,NR,3.0000
188,5,92,239.2027,-227.2010,WI,2,1,CAGE,control_room,R,2.4898,NR,3.0000
189,5,93,251.2659,-239.2648,WI,2,1,WRENCH,fastfood_restaurant,UR,2.6858,NR,3.0000
190,5,94,263.3282,-251.3260,WO,4,2,PUDDLE,basilica,R,2.2099,NR,3.0000
191,5,95,275.3934,-263.3925,WI,4,1,UMBRELLA,game_room,R,2.8881,NR,3.0000
192,5,96,287.4557,-275.4539,WO,4,2,BANDAGE,beach,R,1.8205,NR,3.0000
193,5,97,299.5196,-287.5178,WO,2,1,DOUGHNUT,inn,R,1.8559,NR,3.0000
194,5,98,311.5828,-299.5816,WI,4,2,ORNAMENT,stage,R,2.2277,NR,3.0000
195,5,99,323.6453,-311.6431,WI,4,1,MEDAL,bistro,UR,2.3850,NR,3.0000
196,5,100,335.7108,-323.7085,WI,2,1,BUTTER,tennis_court,R,1.9845,NR,3.0000
197,5,101,347.7746,-335.7725,WO,2,1,DAMSEL,electrical_substation,UR,2.9192,NR,3.0000
198,5,102,359.8385,-347.8374,WO,2,1,EYE,observatory,R,2.1073,NR,3.0000
199,5,103,371.9012,-359.9004,WI,4,2,UMBRELLA,game_room,R,2.3853,NR,3.0000
200,5,104,383.9636,-371.9627,WI,4,2,SAIL,ice_skating_rink,R,1.8963,NR,3.0000
201,5,105,396.0259,-384.0247,WO,4,1,MOON,oilrig,R,2.3586,NR,3.0000
202,5,106,408.0898,-396.0885,WO,4,2,MOON,oilrig,R,2.3260,NR,3.0000
203,5,107,420.1531,-408.1522,WO,4,2,NOODLE,butte,R,2.1276,NR,3.0000
204,5,108,432.2156,-420.2139,WI,2,1,SCISSORS,movie_theater,R,2.9446,NR,3.0000
205,5,109,444.2786,-432.2779,WI,4,2,ELEPHANT,operating_room,R,1.6461,NR,3.0000
206,5,110,456.3415,-444.3395,WO,4,1,BABY,beach,NR,999.0000,R,3.2633
207,5,111,468.4049,-456.4038,WI,4,2,SUNBURN,computer_room,R,2.2721,NR,3.0000
208,5,112,480.4678,-468.4665,WI,4,2,MEDAL,bistro,R,2.1066,NR,3.0000
209,5,113,492.5310,-480.5296,WI,2,1,RICE,locker_room,R,2.1809,NR,3.0000
210,5,114,504.5940,-492.5919,WO,4,2,BABY,beach,R,1.4693,NR,3.0000
211,6,91,10.0016,2.0007,WO,2,1,VELVET,mosque,R,1.7739,NR,3.0000
212,6,92,22.0632,-10.0604,WO,4,1,SEAWEED,athletic_field,R,2.0351,NR,3.0000
213,6,93,34.1237,-22.1221,WI,4,1,YACHT,brewery,R,2.6692,NR,3.0000
214,6,94,46.1825,-34.1816,WI,2,1,LIGHTNING,playroom,R,2.3083,NR,3.0000
215,6,95,58.2404,-46.2387,WO,4,1,SHELL,boathouse,R,1.5813,NR,3.0000
216,6,96,70.2998,-58.2989,WI,4,1,CANDY,toyshop,R,2.2689,NR,3.0000
217,6,97,82.3580,-70.3571,WO,4,2,SHELL,boathouse,R,1.2458,NR,3.0000
218,6,98,94.4168,-82.4151,WO,4,1,SCREWDRIVER,heliport,UR,2.4432,NR,3.0000
219,6,99,106.4758,-94.4745,WO,4,1,ASPIRIN,aqueduct,R,1.8002,NR,3.0000
220,6,100,118.5343,-106.5331,WI,2,1,STOOL,gymnasium,R,2.1258,NR,3.0000
221,6,101,130.5934,-118.5911,WO,2,1,LETTUCE,botanical_garden,R,2.7252,NR,3.0000
222,6,102,142.6532,-130.6516,WI,2,1,SCORPION,parlor,R,2.1658,NR,3.0000
223,6,103,154.7127,-142.7103,WI,4,1,RING,kitchen,R,2.5669,NR,3.0000
224,6,104,166.7721,-154.7706,WI,2,1,WALNUT,limousine_interior,UR,2.1263,NR,3.0000
225,6,105,178.8309,-166.8289,WO,4,1,GORILLA,hangar,R,2.5454,NR,3.0000
226,6,106,190.8908,-178.8889,WI,2,1,VINE,aquarium,R,2.8904,NR,3.0000
227,6,107,202.9502,-190.9486,WI,4,1,PEARL,art_studio,UR,2.3717,NR,3.0000
228,6,108,215.0095,-203.0082,WI,4,2,YACHT,brewery,R,1.5311,NR,3.0000
229,6,109,227.0681,-215.0654,WO,4,2,SEAWEED,athletic_field,R,1.7328,NR,3.0000
230,6,110,239.1281,-227.1267,WO,4,2,ASPIRIN,aqueduct,R,1.6278,NR,3.0000
231,6,111,251.1868,-239.1848,WO,2,1,TIGER,crosswalk,R,1.8372,NR,3.0000
232,6,112,263.2462,-251.2443,WI,4,2,RING,kitchen,R,1.5878,NR,3.0000
233,6,113,275.3062,-263.3040,WO,2,1,CHEESE,barn,R,1.8857,NR,3.0000
234,6,114,287.3658,-275.3637,WI,4,1,RACQUET,jail_cell,UR,2.4913,UR,6.1912
235,6,115,299.4255,-287.4233,WI,4,1,BELL,hotel_room,R,2.0721,NR,3.0000
236,6,116,311.4855,-299.4844,WO,2,1,DRUM,badlands,R,2.3813,NR,3.0000
237,6,117,323.5442,-311.5429,WI,4,2,CANDY,toyshop,R,1.6626,NR,3.0000
238,6,118,335.6038,-323.6022,WO,4,2,SCREWDRIVER,heliport,R,2.3997,NR,3.0000
239,6,119,347.6630,-335.6609,WI,4,1,JUGGLER,courtroom,R,2.2202,NR,3.0000
240,6,120,359.7228,-347.7211,WI,2,1,SAXOPHONE,amusement_arcade,NR,999.0000,R,3.0658
241,6,121,371.7823,-359.7815,WO,4,1,OLIVE,ruin,R,1.6224,NR,3.0000
242,6,122,383.8406,-371.8389,WI,4,2,JUGGLER,courtroom,R,1.0373,NR,3.0000
243,6,123,395.9004,-383.8982,WI,2,1,HAMMER,badminton_court,R,2.3354,NR,3.0000
244,6,124,407.9600,-395.9583,WO,4,2,OLIVE,ruin,R,1.7779,NR,3.0000
245,6,125,420.0194,-408.0177,WO,4,1,POWDER,cabin,R,1.8107,NR,3.0000
246,6,126,432.0787,-420.0770,WI,4,2,BELL,hotel_room,R,1.3377,NR,3.0000
247,6,127,444.1381,-432.1362,WI,4,2,PEARL,art_studio,R,2.1502,NR,3.0000
248,6,128,456.1980,-444.1968,WO,4,2,POWDER,cabin,R,2.4852,NR,3.0000
249,6,129,468.2568,-456.2548,WO,2,1,ANT,fire_station,R,2.6033,NR,3.0000
250,6,130,480.3164,-468.3153,WO,4,2,GORILLA,hangar,R,1.4643,NR,3.0000
251,6,131,492.3758,-480.3746,WI,4,2,RACQUET,jail_cell,R,2.7396,NR,3.0000
252,6,132,504.4346,-492.4331,WO,2,1,DUST,railroad_track,R,2.4391,NR,3.0000
253,7,109,10.0034,1.9975,WO,4,3,SQUIRREL,phone_booth,R,2.0355,NR,3.0000
254,7,110,22.0627,-10.0618,WO,4,3,ROSE,igloo,R,1.8779,NR,3.0000
255,7,111,34.1199,-22.1171,WI,2,2,PIGEON,parking_garage,R,1.9938,NR,3.0000
256,7,112,46.1793,-34.1751,WI,4,3,ALLIGATOR,elevator,R,2.1092,UR,5.8789
257,7,113,58.2398,-46.2383,WI,4,3,SHOWER,throne_room,R,2.2027,NR,3.0000
258,7,114,70.2977,-58.2957,WO,4,4,SQUIRREL,phone_booth,R,1.0680,NR,3.0000
259,7,115,82.3560,-70.3532,WI,2,2,PASTE,music_store,R,2.1883,NR,3.0000
260,7,116,94.4153,-82.4125,WI,4,3,LIME,bathroom,R,2.0583,UR,3.9340
261,7,117,106.4751,-94.4727,WO,2,2,DESK,ocean,R,2.3210,NR,3.0000
262,7,118,118.5338,-106.5310,WI,4,3,FLASK,drugstore,R,1.8295,UR,5.5458
263,7,119,130.5930,-118.5905,WI,4,3,SEAL,car_interior,R,2.1913,NR,3.0000
264,7,120,142.6524,-130.6514,WO,4,3,BROOM,islet,R,2.2409,NR,3.0000
265,7,121,154.7098,-142.7076,WI,4,4,FLASK,drugstore,R,1.4062,NR,3.0000
266,7,122,166.7693,-154.7679,WO,2,2,RABBIT,bamboo_forest,R,1.8950,NR,3.0000
267,7,123,178.8269,-166.8261,WO,2,2,RASH,raceway,R,2.0690,NR,3.0000
268,7,124,190.8842,-178.8835,WI,4,3,BOOT,laundromat,R,2.0048,NR,3.0000
269,7,125,202.9419,-190.9399,WO,4,3,SALAD,ice_floe,R,1.8950,NR,3.0000
270,7,126,215.0004,-202.9992,WI,2,2,BAYONET,bus_interior,R,2.3118,NR,3.0000
271,7,127,227.0585,-215.0566,WO,4,4,ROSE,igloo,R,1.2915,NR,3.0000
272,7,128,239.1168,-227.1159,WO,4,3,PUMPKIN,forest_needleleaf,R,1.9610,NR,3.0000
273,7,129,251.1745,-239.1735,WO,4,3,TULIP,manufactured_home,R,2.2651,NR,3.0000
274,7,130,263.2324,-251.2310,WI,4,4,SHOWER,throne_room,R,1.7489,NR,3.0000
275,7,131,275.2904,-263.2879,WI,2,2,WORM,optician,R,2.4332,NR,3.0000
276,7,132,287.3495,-275.3481,WI,4,3,RAKE,home_office,R,2.7992,NR,3.0000
277,7,133,299.4077,-287.4060,WO,4,3,OPIUM,patio,R,1.8534,NR,3.0000
278,7,134,311.4658,-299.4636,WI,4,4,SEAL,car_interior,R,1.2371,NR,3.0000
279,7,135,323.5252,-311.5242,WO,4,4,TULIP,manufactured_home,R,1.1493,NR,3.0000
280,7,136,335.5828,-323.5810,WI,2,2,SOUP,subway_interior,R,2.7630,NR,3.0000
281,7,137,347.6417,-335.6395,WO,2,2,SNAIL,playground,R,2.2822,NR,3.0000
282,7,138,359.7010,-347.6986,WO,4,4,OPIUM,patio,R,1.5502,NR,3.0000
283,7,139,371.7610,-359.7581,WI,2,2,MOUSE,clothing_store,R,2.2842,NR,3.0000
284,7,140,383.8204,-371.8185,WI,4,4,RAKE,home_office,R,1.5405,NR,3.0000
285,7,141,395.8790,-383.8779,WO,2,2,OWL,pagoda,R,2.1810,NR,3.0000
286,7,142,407.9374,-395.9365,WI,4,4,ALLIGATOR,elevator,R,1.2457,NR,3.0000
287,7,143,419.9946,-407.9931,WI,4,4,LIME,bathroom,R,1.3078,NR,3.0000
288,7,144,432.0541,-420.0524,WO,2,2,CAMERA,castle,R,1.9046,NR,3.0000
289,7,145,444.1131,-432.1119,WI,4,4,BOOT,laundromat,R,1.5182,NR,3.0000
290,7,146,456.1708,-444.1690,WO,4,4,SALAD,ice_floe,R,1.4124,NR,3.0000
291,7,147,468.2297,-456.2280,WO,4,4,BROOM,islet,R,1.9932,NR,3.0000
292,7,148,480.2880,-468.2852,WI,2,2,TOAST,dining_room,R,2.0247,NR,3.0000
293,7,149,492.3481,-480.3472,WO,4,4,PUMPKIN,forest_needleleaf,R,1.8511,NR,3.0000
294,7,150,504.4057,-492.4040,WO,2,2,GLOBE,rope_bridge,R,1.8995,NR,3.0000
295,8,127,10.0032,1.9975,WO,4,3,CANNON,hill,R,1.6075,NR,3.0000
296,8,128,22.0659,-10.0636,WI,4,3,CHICKEN,archive,R,1.5888,NR,3.0000
297,8,129,34.1286,-22.1270,WO,4,3,THONG,rice_paddy,R,2.3095,NR,3.0000
298,8,130,46.1910,-34.1896,WI,4,3,WALRUS,assembly_line,R,1.9032,NR,3.0000
299,8,131,58.2526,-46.2508,WO,2,2,SYRUP,boardwalk,R,2.1733,NR,3.0000
300,8,132,70.3152,-58.3137,WO,4,4,THONG,rice_paddy,R,1.2615,NR,3.0000
301,8,133,82.3767,-70.3758,WI,4,3,ROPE,beauty_salon,R,1.8109,NR,3.0000
302,8,134,94.4380,-82.4363,WI,4,4,WALRUS,assembly_line,R,1.3170,NR,3.0000
303,8,135,106.5006,-94.4987,WI,4,3,BOWL,jacuzzi,R,1.6873,NR,3.0000
304,8,136,118.5627,-106.5605,WO,2,2,WALLET,house,R,1.9239,NR,3.0000
305,8,137,130.6257,-118.6244,WI,4,3,NET,restaurant_kitchen,R,2.5965,NR,3.0000
306,8,138,142.6872,-130.6854,WO,4,3,TWEEZERS,formal_garden,R,1.7611,NR,3.0000
307,8,139,154.7491,-142.7476,WI,4,3,MUSSEL,attic,R,2.1514,NR,3.0000
308,8,140,166.8108,-154.8089,WI,4,4,MUSSEL,attic,R,1.3050,NR,3.0000
309,8,141,178.8732,-166.8712,WI,4,4,BOWL,jacuzzi,R,1.1300,NR,3.0000
310,8,142,190.9360,-178.9345,WO,4,4,TWEEZERS,formal_garden,R,1.3311,NR,3.0000
311,8,143,202.9979,-190.9963,WI,2,2,BRAIN,lecture_room,R,1.5135,NR,3.0000
312,8,144,215.0599,-203.0587,WO,2,2,DAISY,gas_station,R,2.0224,NR,3.0000
313,8,145,227.1227,-215.1209,WI,2,2,LAMB,art_gallery,R,2.5615,NR,3.0000
314,8,146,239.1849,-227.1837,WI,4,3,BATON,living_room,R,1.9854,NR,3.0000
315,8,147,251.2474,-239.2458,WO,2,2,NIGHTGOWN,plaza,R,1.9517,NR,3.0000
316,8,148,263.3095,-251.3078,WO,4,3,LAMP,hot_spring,R,2.4770,NR,3.0000
317,8,149,275.3720,-263.3701,WO,4,3,ACCORDIAN,creek,R,1.8517,NR,3.0000
318,8,150,287.4347,-275.4337,WI,4,4,NET,restaurant_kitchen,R,1.8850,NR,3.0000
319,8,151,299.4963,-287.4948,WO,4,3,APPLE,rock_arch,R,2.0818,NR,3.0000
320,8,152,311.5589,-299.5572,WI,2,2,SUBMARINE,jewelry_shop,R,2.2877,NR,3.0000
321,8,153,323.6214,-311.6193,WO,4,3,SARDINE,mountain_snowy,R,1.7762,NR,3.0000
322,8,154,335.6843,-323.6829,WO,4,4,LAMP,hot_spring,R,2.1209,NR,3.0000
323,8,155,347.7465,-335.7454,WO,4,4,CANNON,hill,R,1.2773,NR,3.0000
324,8,156,359.8078,-347.8048,WI,4,4,CHICKEN,archive,R,0.8663,NR,3.0000
325,8,157,371.8717,-359.8695,WO,4,4,ACCORDIAN,creek,R,1.9953,NR,3.0000
326,8,158,383.9349,-371.9325,WI,2,2,SOAP,bookstore,R,2.2471,NR,3.0000
327,8,159,395.9979,-383.9952,WI,4,4,ROPE,beauty_salon,R,1.3357,NR,3.0000
328,8,160,408.0624,-396.0599,WO,4,4,SARDINE,mountain_snowy,R,1.6685,NR,3.0000
329,8,161,420.1258,-408.1243,WO,2,2,BROWNIE,bayou,R,2.6884,NR,3.0000
330,8,162,432.1884,-420.1868,WO,2,2,SNOW,mausoleum,R,2.2936,NR,3.0000
331,8,163,444.2507,-432.2493,WI,4,4,BATON,living_room,R,0.9606,NR,3.0000
332,8,164,456.3126,-444.3118,WI,2,2,WHEAT,closet,R,2.5548,NR,3.0000
333,8,165,468.3746,-456.3712,WI,2,2,TYPEWRITER,stable,R,2.6447,NR,3.0000
334,8,166,480.4386,-468.4369,WO,4,4,APPLE,rock_arch,R,1.2839,NR,3.0000
335,8,167,492.5025,-480.5006,WI,2,2,SWORD,cubicle,R,2.1393,NR,3.0000
336,8,168,504.5647,-492.5630,WO,2,2,LANTERN,greenhouse,R,2.2454,NR,3.0000
337,9,145,10.0048,1.9964,WI,4,3,RIFLE,hospital_room,R,2.0412,NR,3.0000
338,9,146,22.0766,-10.0753,WI,4,3,BENCH,childs_room,R,1.5975,NR,3.0000
339,9,147,34.1461,-22.1443,WI,4,3,PENCIL,galley,R,1.6185,NR,3.0000
340,9,148,46.2165,-34.2147,WO,4,3,FORK,driving_range,R,1.6652,NR,3.0000
341,9,149,58.2870,-46.2848,WO,2,2,PYTHON,bridge,R,2.3977,NR,3.0000
342,9,150,70.3570,-58.3562,WI,2,2,TOWEL,garage,R,2.1694,NR,3.0000
343,9,151,82.4259,-70.4230,WI,4,4,BENCH,childs_room,R,0.9606,NR,3.0000
344,9,152,94.4964,-82.4942,WO,4,3,FOX,dam,R,1.4568,NR,3.0000
345,9,153,106.5668,-94.5646,WO,4,4,FOX,dam,R,1.2633,NR,3.0000
346,9,154,118.6369,-106.6344,WO,4,3,SPATULA,cottage_garden,R,2.2062,NR,3.0000
347,9,155,130.7070,-118.7054,WI,2,2,HARPOON,bakery,R,2.0941,NR,3.0000
348,9,156,142.7765,-130.7752,WO,2,2,TEETH,market,R,1.8936,NR,3.0000
349,9,157,154.8455,-142.8437,WO,2,2,SHEEP,corn_field,R,2.1700,NR,3.0000
350,9,158,166.9155,-154.9142,WI,4,3,EMPEROR,basement,R,1.9619,NR,3.0000
351,9,159,178.9847,-166.9831,WO,4,3,MONKEY,marsh,R,2.3361,NR,3.0000
352,9,160,191.0542,-179.0509,WI,4,3,CHERRY,burial_chamber,R,1.9922,NR,3.0000
353,9,161,203.1257,-191.1235,WO,4,4,FORK,driving_range,R,1.5226,NR,3.0000
354,9,162,215.1957,-203.1933,WI,4,4,RIFLE,hospital_room,R,1.2761,NR,3.0000
355,9,163,227.2666,-215.2647,WO,4,4,SPATULA,cottage_garden,R,1.0402,NR,3.0000
356,9,164,239.3365,-227.3353,WI,4,4,EMPEROR,basement,R,1.3985,NR,3.0000
357,9,165,251.4056,-239.4033,WI,2,2,SPONGE,music_studio,R,2.9292,NR,3.0000
358,9,166,263.4763,-251.4740,WO,2,2,SANDAL,canal,R,1.9098,NR,3.0000
359,9,167,275.5463,-263.5456,WI,4,3,SLIPPER,volleyball_court,R,1.7161,NR,3.0000
360,9,168,287.6155,-275.6135,WO,4,3,HONEY,corral,R,1.7436,NR,3.0000
361,9,169,299.6855,-287.6845,WI,2,2,BRACELET,dentists_office,R,2.1593,NR,3.0000
362,9,170,311.7545,-299.7530,WI,2,2,DETECTIVE,reception,R,1.9916,NR,3.0000
363,9,171,323.8243,-311.8210,WO,2,2,HELMET,cliff,R,2.1294,NR,3.0000
364,9,172,335.8964,-323.8955,WI,2,2,QUARTER,kitchenette,R,1.6195,NR,3.0000
365,9,173,347.9657,-335.9641,WI,4,3,FAN,chicken_coop,R,2.2708,NR,3.0000
366,9,174,360.0353,-348.0333,WI,4,4,CHERRY,burial_chamber,R,1.5628,NR,3.0000
367,9,175,372.1053,-360.1039,WO,2,2,DOVE,pasture,R,1.7170,NR,3.0000
368,9,176,384.1751,-372.1741,WO,4,4,HONEY,corral,R,2.3272,NR,3.0000
369,9,177,396.2440,-384.2431,WI,4,4,FAN,chicken_coop,R,0.9630,NR,3.0000
370,9,178,408.3137,-396.3127,WI,4,4,SLIPPER,volleyball_court,R,0.9242,NR,3.0000
371,9,179,420.3827,-408.3811,WO,4,3,TOBACCO,amusement_park,R,1.4845,NR,3.0000
372,9,180,432.4523,-420.4513,WO,4,4,TOBACCO,amusement_park,R,0.8094,NR,3.0000
373,9,181,444.5216,-432.5194,WI,4,4,PENCIL,galley,R,1.7378,NR,3.0000
374,9,182,456.5918,-444.5903,WO,2,2,BALLOON,crevasse,R,2.1238,NR,3.0000
375,9,183,468.6619,-456.6588,WI,2,2,FENCE,sauna,R,2.4440,NR,3.0000
376,9,184,480.7330,-468.7313,WO,4,3,WHIP,fountain,R,1.7366,NR,3.0000
377,9,185,492.8031,-480.8018,WO,4,4,WHIP,fountain,R,0.8063,NR,3.0000
378,9,186,504.8728,-492.8710,WO,4,4,MONKEY,marsh,R,1.1897,NR,3.0000
379,10,163,10.0030,1.9986,WO,2,2,CANE,river,R,2.3136,NR,3.0000
380,10,164,22.0695,-10.0685,WI,2,2,RUDDER,auto_factory,R,2.8436,NR,3.0000
381,10,165,34.1328,-22.1306,WO,2,2,ANCHOR,ice_shelf,R,2.7389,NR,3.0000
382,10,166,46.1977,-34.1951,WO,4,3,ICICLE,forest_path,R,2.6452,NR,3.0000
383,10,167,58.2631,-46.2624,WI,4,3,WITCH,ice_cream_parlor,R,1.2786,NR,3.0000
384,10,168,70.3262,-58.3233,WO,4,3,HAWK,orchard,R,2.2708,UR,3.6171
385,10,169,82.3916,-70.3888,WI,4,3,TROPHY,museum,R,2.2009,NR,3.0000
386,10,170,94.4568,-82.4545,WI,4,4,WITCH,ice_cream_parlor,R,0.8858,NR,3.0000
387,10,171,106.5216,-94.5199,WO,4,3,HIGHWAY,putting_green,R,1.9414,NR,3.0000
388,10,172,118.5863,-106.5850,WO,4,3,KNIFE,chalet,R,1.5546,NR,3.0000
389,10,173,130.6501,-118.6477,WI,2,2,POSTER,diner,R,2.3338,NR,3.0000
390,10,174,142.7156,-130.7130,WO,4,3,OATMEAL,lock_chamber,R,1.5916,NR,3.0000
391,10,175,154.7808,-142.7789,WI,4,3,SHOVEL,orchestra_pit,R,2.0818,NR,3.0000
392,10,176,166.8453,-154.8432,WO,4,3,EASEL,promenade_deck,R,1.2833,NR,3.0000
393,10,177,178.9107,-166.9091,WI,4,3,OTTER,pulpit,R,2.4035,NR,3.0000
394,10,178,190.9749,-178.9736,WO,2,2,MAP,palace,R,2.9510,NR,3.0000
395,10,179,203.0394,-191.0360,WI,4,4,SHOVEL,orchestra_pit,R,1.3354,NR,3.0000
396,10,180,215.1057,-203.1027,WI,4,3,TURTLE,bedroom,R,1.6180,NR,3.0000
397,10,181,227.1710,-215.1680,WI,4,4,TURTLE,bedroom,R,0.8912,NR,3.0000
398,10,182,239.2374,-227.2342,WO,2,2,TORNADO,garbage_dump,R,2.5294,NR,3.0000
399,10,183,251.3028,-239.3017,WI,4,3,BUCKET,auditorium,R,1.8205,NR,3.0000
400,10,184,263.3671,-251.3654,WO,2,2,CLARINET,lido_deck,R,1.5849,NR,3.0000
401,10,185,275.4319,-263.4307,WI,2,2,SCOTCH,classroom,R,1.8378,NR,3.0000
402,10,186,287.4963,-275.4950,WI,2,2,FROG,nursery,R,2.3736,NR,3.0000
403,10,187,299.5611,-287.5602,WO,4,4,HAWK,orchard,R,0.8502,NR,3.0000
404,10,188,311.6253,-299.6243,WI,4,4,TROPHY,museum,R,2.0004,NR,3.0000
405,10,189,323.6899,-311.6872,WO,4,4,EASEL,promenade_deck,R,0.9101,NR,3.0000
406,10,190,335.7552,-323.7528,WO,4,4,KNIFE,chalet,R,0.9896,NR,3.0000
407,10,191,347.8201,-335.8187,WI,4,3,PLUG,airplane_cabin,R,1.5863,NR,3.0000
408,10,192,359.8848,-347.8834,WI,4,4,OTTER,pulpit,R,1.1556,NR,3.0000
409,10,193,371.9489,-359.9481,WI,4,4,BUCKET,auditorium,R,1.0474,NR,3.0000
410,10,194,384.0128,-372.0109,WO,4,3,PEDAL,harbor,R,2.1092,NR,3.0000
411,10,195,396.0788,-384.0758,WI,4,4,PLUG,airplane_cabin,R,0.9542,NR,3.0000
412,10,196,408.1444,-396.1436,WO,4,4,HIGHWAY,putting_green,R,1.0649,NR,3.0000
413,10,197,420.2086,-408.2069,WO,4,4,ICICLE,forest_path,R,1.3122,NR,3.0000
414,10,198,432.2729,-420.2715,WI,2,2,CRAB,swimming_pool,R,2.1385,NR,3.0000
415,10,199,444.3375,-432.3365,WI,2,2,MUFFIN,catacomb,R,2.1792,NR,3.0000
416,10,200,456.4012,-444.3983,WO,2,2,POTATO,nuclear_power_plant,R,2.3131,NR,3.0000
417,10,201,468.4668,-456.4649,WI,2,2,CORAL,restaurant,R,2.6752,NR,3.0000
418,10,202,480.5319,-468.5305,WO,4,4,OATMEAL,lock_chamber,R,1.2113,NR,3.0000
419,10,203,492.5962,-480.5953,WO,4,4,PEDAL,harbor,R,2.4743,NR,3.0000
420,10,204,504.6603,-492.6582,WO,2,2,SCAB,boat_deck,R,2.2250,NR,3.0000
421,11,181,10.0039,1.9969,WI,2,2,MEDICINE,apse,R,1.7899,NR,3.0000
422,11,182,22.0717,-10.0709,WI,4,3,ELEPHANT,operating_room,R,2.2978,NR,3.0000
423,11,183,34.1375,-22.1355,WO,4,3,BABY,beach,R,2.5340,NR,3.0000
424,11,184,46.2047,-34.2027,WO,4,3,MOON,oilrig,R,2.0600,NR,3.0000
425,11,185,58.2710,-46.2690,WI,4,3,ORNAMENT,stage,R,1.3786,NR,3.0000
426,11,186,70.3380,-58.3368,WO,4,3,PAN,pavilion,R,1.5374,NR,3.0000
427,11,187,82.4036,-70.4012,WI,4,3,UMBRELLA,game_room,R,1.6472,NR,3.0000
428,11,188,94.4704,-82.4691,WO,2,2,DAMSEL,electrical_substation,UR,2.1491,NR,3.0000
429,11,189,106.5365,-94.5334,WO,4,3,BANANA,iceberg,R,1.4348,NR,3.0000
430,11,190,118.6040,-106.6028,WO,4,4,MOON,oilrig,R,1.7460,NR,3.0000
431,11,191,130.6702,-118.6682,WI,2,2,BUTTER,tennis_court,R,1.6576,NR,3.0000
432,11,192,142.7366,-130.7335,WI,4,3,MAGICIAN,kindergarden_classroom,R,1.8548,NR,3.0000
433,11,193,154.8043,-142.8028,WO,4,3,PUDDLE,basilica,R,2.5697,NR,3.0000
434,11,194,166.8708,-154.8700,WO,2,2,EYE,observatory,R,1.9340,NR,3.0000
435,11,195,178.9362,-166.9342,WO,4,3,BANDAGE,beach,R,1.6003,NR,3.0000
436,11,196,191.0032,-179.0020,WI,2,2,CROWN,supermarket,R,2.3925,NR,3.0000
437,11,197,203.0689,-191.0677,WO,4,4,BANANA,iceberg,R,0.9396,NR,3.0000
438,11,198,215.1348,-203.1317,WO,4,3,NOODLE,butte,R,2.1897,NR,3.0000
439,11,199,227.2037,-215.2006,WI,4,4,UMBRELLA,game_room,R,1.2044,NR,3.0000
440,11,200,239.2716,-227.2690,WI,4,3,SAIL,ice_skating_rink,R,1.6652,NR,3.0000
441,11,201,251.3395,-239.3374,WO,4,4,BANDAGE,beach,R,1.8139,NR,3.0000
442,11,202,263.4060,-251.4030,WO,2,2,PENNY,bullring,R,2.0040,NR,3.0000
443,11,203,275.4734,-263.4719,WO,2,2,DOUGHNUT,inn,R,2.2853,NR,3.0000
444,11,204,287.5396,-275.5376,WI,4,3,MEDAL,bistro,R,2.4607,NR,3.0000
445,11,205,299.6065,-287.6034,WI,4,4,MEDAL,bistro,R,2.2850,NR,3.0000
446,11,206,311.6747,-299.6727,WO,2,2,KEG,herb_garden,R,2.7667,NR,3.0000
447,11,207,323.7414,-311.7401,WO,2,2,ENVELOPE,canyon,R,1.9638,NR,3.0000
448,11,208,335.8073,-323.8065,WI,2,2,SCISSORS,movie_theater,R,2.5649,R,8.2391
449,11,209,347.8733,-335.8718,WI,4,4,MAGICIAN,kindergarden_classroom,R,1.1532,NR,3.0000
450,11,210,359.9395,-347.9380,WI,2,2,CAGE,control_room,R,2.4989,NR,3.0000
451,11,211,372.0062,-360.0043,WO,4,4,BABY,beach,R,1.1661,NR,3.0000
452,11,212,384.0729,-372.0710,WI,4,3,SUNBURN,computer_room,R,1.9895,NR,3.0000
453,11,213,396.1394,-384.1385,WI,2,2,WRENCH,fastfood_restaurant,UR,2.2543,NR,3.0000
454,11,214,408.2050,-396.2027,WI,4,4,ORNAMENT,stage,R,2.2842,NR,3.0000
455,11,215,420.2721,-408.2708,WO,4,4,PUDDLE,basilica,R,1.2851,NR,3.0000
456,11,216,432.3400,-420.3382,WI,2,2,RICE,locker_room,R,2.2230,NR,3.0000
457,11,217,444.4066,-432.4053,WI,4,4,SAIL,ice_skating_rink,R,0.9780,NR,3.0000
458,11,218,456.4724,-444.4704,WO,4,4,NOODLE,butte,R,1.3387,NR,3.0000
459,11,219,468.5390,-456.5374,WI,4,4,SUNBURN,computer_room,R,2.4114,NR,3.0000
460,11,220,480.6055,-468.6042,WO,4,4,PAN,pavilion,R,0.9513,NR,3.0000
461,11,221,492.6722,-480.6694,WI,4,4,ELEPHANT,operating_room,R,1.5443,NR,3.0000
462,11,222,504.7407,-492.7374,WO,2,2,ARMOR,landing_deck,R,2.5148,NR,3.0000
463,12,199,10.0056,1.9958,WO,4,3,SCREWDRIVER,heliport,R,1.9186,NR,3.0000
464,12,200,22.0764,-10.0753,WO,4,3,SEAWEED,athletic_field,R,2.3369,NR,3.0000
465,12,201,34.1442,-22.1423,WO,4,4,SCREWDRIVER,heliport,R,1.0472,NR,3.0000
466,12,202,46.2130,-34.2119,WI,4,3,YACHT,brewery,R,2.2759,NR,3.0000
467,12,203,58.2809,-46.2794,WO,2,2,LETTUCE,botanical_garden,R,2.2088,NR,3.0000
468,12,204,70.3493,-58.3483,WI,4,3,JUGGLER,courtroom,R,1.9315,NR,3.0000
469,12,205,82.4177,-70.4162,WI,4,3,RACQUET,jail_cell,R,2.3113,NR,3.0000
470,12,206,94.4861,-82.4849,WI,2,2,SAXOPHONE,amusement_arcade,R,2.5694,NR,3.0000
471,12,207,106.5543,-94.5532,WO,4,3,ASPIRIN,aqueduct,R,1.7901,NR,3.0000
472,12,208,118.6227,-106.6206,WI,4,3,BELL,hotel_room,R,1.5198,NR,3.0000
473,12,209,130.6915,-118.6904,WO,4,4,ASPIRIN,aqueduct,R,1.0109,NR,3.0000
474,12,210,142.7599,-130.7587,WO,4,3,SHELL,boathouse,R,2.5188,NR,3.0000
475,12,211,154.8281,-142.8269,WI,4,4,JUGGLER,courtroom,R,1.0368,NR,3.0000
476,12,212,166.8963,-154.8944,WI,4,3,CANDY,toyshop,R,0.9940,NR,3.0000
477,12,213,178.9649,-166.9638,WO,4,3,POWDER,cabin,R,2.9771,NR,3.0000
478,12,214,191.0329,-179.0303,WI,2,2,HAMMER,badminton_court,R,2.0135,NR,3.0000
479,12,215,203.1031,-191.1010,WI,4,3,PEARL,art_studio,R,1.7377,R,11.5102
480,12,216,215.1723,-203.1709,WI,4,4,PEARL,art_studio,R,0.8067,NR,3.0000
481,12,217,227.2414,-215.2401,WO,2,2,DUST,railroad_track,R,2.3170,NR,3.0000
482,12,218,239.3107,-227.3086,WI,2,2,SCORPION,parlor,R,2.3447,R,7.5504
483,12,219,251.3798,-239.3782,WI,4,3,RING,kitchen,R,1.5827,NR,3.0000
484,12,220,263.4490,-251.4468,WI,2,2,WALNUT,limousine_interior,UR,2.8698,NR,3.0000
485,12,221,275.5182,-263.5167,WO,2,2,TIGER,crosswalk,R,1.9915,NR,3.0000
486,12,222,287.5868,-275.5849,WO,2,2,ANT,fire_station,R,2.4720,NR,3.0000
487,12,223,299.6564,-287.6537,WO,4,3,OLIVE,ruin,R,2.8043,NR,3.0000
488,12,224,311.7261,-299.7246,WI,4,4,RACQUET,jail_cell,R,1.2390,NR,3.0000
489,12,225,323.7952,-311.7930,WI,4,4,CANDY,toyshop,R,0.9262,NR,3.0000
490,12,226,335.8643,-323.8627,WO,2,2,VELVET,mosque,R,2.0934,NR,3.0000
491,12,227,347.9331,-335.9316,WO,2,2,CHEESE,barn,R,2.8980,NR,3.0000
492,12,228,360.0019,-348.0005,WI,2,2,LIGHTNING,playroom,R,2.7733,NR,3.0000
493,12,229,372.0706,-360.0689,WI,4,4,BELL,hotel_room,R,1.6868,NR,3.0000
494,12,230,384.1398,-372.1378,WO,4,4,POWDER,cabin,R,1.8844,NR,3.0000
495,12,231,396.2089,-384.2073,WO,4,4,OLIVE,ruin,R,1.1583,NR,3.0000
496,12,232,408.2776,-396.2766,WI,2,2,VINE,aquarium,R,2.4646,NR,3.0000
497,12,233,420.3463,-408.3431,WO,4,3,GORILLA,hangar,R,2.1141,NR,3.0000
498,12,234,432.4165,-420.4147,WO,4,4,SEAWEED,athletic_field,R,1.3019,NR,3.0000
499,12,235,444.4853,-432.4840,WI,4,4,RING,kitchen,R,1.1139,NR,3.0000
500,12,236,456.5539,-444.5516,WI,4,4,YACHT,brewery,R,1.1330,NR,3.0000
501,12,237,468.6232,-456.6220,WI,2,2,STOOL,gymnasium,R,2.3095,NR,3.0000
502,12,238,480.6922,-468.6902,WO,4,4,GORILLA,hangar,R,0.9069,NR,3.0000
503,12,239,492.7614,-480.7601,WO,2,2,DRUM,badlands,UR,2.2493,NR,3.0000
504,12,240,504.8305,-492.8286,WO,4,4,SHELL,boathouse,R,1.1842,NR,3.0000
