index,run,trial,onset,duration,cond,subcond,resp,acc,respRT,ISIresp,ISIacc,ISIrespRT
1,1,1,12.0045,1.4965,object,natural,NR,0,999.0000,natural,1,0.1470
2,1,2,13.5857,1.4157,object,natural,NR,0,999.0000,natural,1,0.0872
3,1,3,15.0319,1.4685,object,manmade,natural,0,0.3515,NR,0,999.0000
4,1,4,16.5310,1.4697,object,natural,NR,0,999.0000,manmade,0,0.1589
5,1,5,18.0309,1.4699,object,manmade,NR,0,999.0000,manmade,1,0.0373
6,1,6,19.5321,1.4684,object,natural,natural,1,0.3322,NR,0,999.0000
7,1,7,21.0319,1.4683,object,manmade,natural,0,0.4531,NR,0,999.0000
8,1,8,22.5322,1.4689,object,manmade,NR,0,999.0000,manmade,1,0.1454
9,1,9,24.0336,1.4678,object,manmade,NR,0,999.0000,manmade,1,0.0864
10,1,10,25.5346,1.4659,object,natural,NR,0,999.0000,natural,1,0.0554
11,1,11,27.0443,10.4563,rest,rest,rest,1,999.0000,NR,1,0.0000
12,1,12,37.5502,1.4504,face,female,NR,0,999.0000,female,1,0.0737
13,1,13,39.0503,1.4513,face,male,NR,0,999.0000,male,1,0.0547
14,1,14,40.5375,1.4639,face,female,female,1,0.3366,NR,0,999.0000
15,1,15,42.0369,1.4631,face,male,NR,0,999.0000,male,1,0.0795
16,1,16,43.5371,1.4639,face,female,NR,0,999.0000,female,1,0.0108
17,1,17,45.0378,1.4626,face,female,male,0,0.3769,NR,0,999.0000
18,1,18,46.5385,1.4628,face,female,female,1,0.4469,NR,0,999.0000
19,1,19,48.0394,1.4618,face,male,NR,0,999.0000,male,1,0.0525
20,1,20,49.5406,1.4600,face,male,NR,0,999.0000,male,1,0.0092
21,1,21,51.0406,1.4602,face,male,male,1,0.3368,NR,0,999.0000
22,1,22,52.5439,10.4563,rest,rest,rest,1,999.0000,NR,1,0.0000
23,1,23,63.0588,1.4421,place,outdoor,NR,0,999.0000,outdoor,1,0.4825
24,1,24,64.5608,1.4406,place,indoor,indoor,1,0.3914,NR,0,999.0000
25,1,25,66.0439,1.4568,place,outdoor,NR,0,999.0000,outdoor,1,0.2201
26,1,26,67.5430,1.4573,place,indoor,NR,0,999.0000,indoor,1,0.0992
27,1,27,69.0432,1.4575,place,outdoor,outdoor,1,0.2899,NR,0,999.0000
28,1,28,70.5437,1.4564,place,indoor,NR,0,999.0000,indoor,1,0.0634
29,1,29,72.0449,1.4552,place,indoor,indoor,1,0.3384,NR,0,999.0000
30,1,30,73.5442,1.4560,place,outdoor,NR,0,999.0000,outdoor,1,0.1104
31,1,31,75.0456,1.4547,place,indoor,NR,0,999.0000,indoor,1,0.0228
32,1,32,76.5467,1.4537,place,outdoor,NR,0,999.0000,outdoor,1,0.0048
33,1,33,78.0613,10.4391,rest,rest,rest,1,999.0000,NR,1,0.0000
34,1,34,88.5686,1.4322,place,outdoor,NR,0,999.0000,outdoor,1,0.2338
35,1,35,90.0698,1.4304,place,outdoor,NR,0,999.0000,outdoor,1,0.4544
36,1,36,91.5488,1.4515,place,indoor,NR,0,999.0000,indoor,1,0.1395
37,1,37,93.0494,1.4517,place,indoor,NR,0,999.0000,outdoor,0,0.0608
38,1,38,94.5510,1.4501,place,indoor,NR,0,999.0000,indoor,1,0.1099
39,1,39,96.0507,1.4503,place,outdoor,NR,0,999.0000,outdoor,1,0.2495
40,1,40,97.5521,1.4484,place,indoor,NR,0,999.0000,indoor,1,0.0094
41,1,41,99.0515,1.4496,place,outdoor,outdoor,1,0.4102,NR,0,999.0000
42,1,42,100.5529,1.4482,place,outdoor,NR,0,999.0000,outdoor,1,0.3805
43,1,43,102.0535,1.4475,place,indoor,NR,0,999.0000,indoor,1,0.0196
44,1,44,103.5624,10.4387,rest,rest,rest,1,999.0000,NR,1,0.0000
45,1,45,114.0789,1.4230,object,manmade,NR,0,999.0000,manmade,1,0.2827
46,1,46,115.5804,1.4213,object,natural,natural,1,0.3824,NR,0,999.0000
47,1,47,117.0565,1.4439,object,natural,NR,0,999.0000,natural,1,0.0389
48,1,48,118.5556,1.4446,object,manmade,NR,0,999.0000,manmade,1,0.1596
49,1,49,120.0567,1.4438,object,natural,NR,0,999.0000,natural,1,0.3704
50,1,50,121.5577,1.4424,object,natural,NR,0,999.0000,manmade,0,0.0033
51,1,51,123.0577,1.4435,object,natural,natural,1,0.4243,NR,0,999.0000
52,1,52,124.5587,1.4414,object,manmade,NR,0,999.0000,manmade,1,0.1968
53,1,53,126.0585,1.4419,object,manmade,NR,0,999.0000,manmade,1,0.1167
54,1,54,127.5599,1.4404,object,manmade,NR,0,999.0000,manmade,1,0.1590
55,1,55,129.0792,10.4209,rest,rest,rest,1,999.0000,NR,1,0.0000
56,1,56,139.5873,1.4143,face,male,NR,0,999.0000,male,1,0.2143
57,1,57,141.0900,1.4114,face,male,NR,0,999.0000,male,1,0.1259
58,1,58,142.5629,1.4378,face,male,female,0,0.3605,NR,0,999.0000
59,1,59,144.0618,1.4386,face,female,male,0,0.2888,NR,0,999.0000
60,1,60,145.5630,1.4376,face,female,female,1,0.4190,NR,0,999.0000
61,1,61,147.0630,1.4374,face,female,NR,0,999.0000,female,1,0.0507
62,1,62,148.5652,1.4351,face,male,NR,0,999.0000,male,1,0.1416
63,1,63,150.0649,1.4365,face,female,female,1,0.3773,NR,0,999.0000
64,1,64,151.5659,1.4354,face,female,NR,0,999.0000,female,1,0.0216
65,1,65,153.0663,1.4339,face,male,male,1,0.3959,NR,0,999.0000
66,1,66,154.5797,10.4215,rest,rest,rest,1,999.0000,NR,1,0.0000
67,1,67,165.0982,1.4025,face,female,NR,0,999.0000,female,1,0.1154
68,1,68,166.5986,1.4018,face,male,NR,0,999.0000,male,1,0.0810
69,1,69,168.0685,1.4328,face,male,NR,0,999.0000,male,1,0.0684
70,1,70,169.5689,1.4322,face,female,female,1,0.3513,NR,0,999.0000
71,1,71,171.0694,1.4312,face,male,NR,0,999.0000,male,1,0.0656
72,1,72,172.5698,1.4304,face,male,NR,0,999.0000,male,1,0.1695
73,1,73,174.0710,1.4298,face,female,female,1,0.3596,NR,0,999.0000
74,1,74,175.5717,1.4291,face,female,male,0,0.3633,NR,0,999.0000
75,1,75,177.0715,1.4299,face,female,NR,0,999.0000,female,1,0.1077
76,1,76,178.5738,1.4264,face,male,NR,0,999.0000,male,1,0.0699
77,1,77,180.0804,10.4198,rest,rest,rest,1,999.0000,NR,1,0.0000
78,1,78,190.6068,1.3944,place,indoor,NR,0,999.0000,indoor,1,0.3360
79,1,79,192.1085,1.3925,place,indoor,NR,0,999.0000,indoor,1,0.4361
80,1,80,193.5762,1.4251,place,outdoor,NR,0,999.0000,indoor,0,0.1426
81,1,81,195.0765,1.4249,place,outdoor,NR,0,999.0000,outdoor,1,0.0566
82,1,82,196.5772,1.4237,place,indoor,NR,0,999.0000,indoor,1,0.0513
83,1,83,198.0770,1.4238,place,indoor,NR,0,999.0000,indoor,1,0.1862
84,1,84,199.5777,1.4231,place,indoor,NR,0,999.0000,indoor,1,0.0893
85,1,85,201.0781,1.4226,place,outdoor,outdoor,1,0.4015,NR,0,999.0000
86,1,86,202.5781,1.4231,place,outdoor,NR,0,999.0000,indoor,0,0.0397
87,1,87,204.0799,1.4204,place,outdoor,NR,0,999.0000,outdoor,1,0.0077
88,1,88,205.5977,10.4027,rest,rest,rest,1,999.0000,NR,1,0.0000
89,1,89,216.1172,1.3842,object,natural,NR,0,999.0000,natural,1,0.1348
90,1,90,217.6179,1.3835,object,manmade,NR,0,999.0000,manmade,1,0.1234
91,1,91,219.0822,1.4188,object,natural,NR,0,999.0000,natural,1,0.0048
92,1,92,220.5830,1.4173,object,manmade,NR,0,999.0000,manmade,1,0.0943
93,1,93,222.0818,1.4184,object,natural,NR,0,999.0000,natural,1,0.0913
94,1,94,223.5823,1.4182,object,manmade,NR,0,999.0000,manmade,1,0.0887
95,1,95,225.0834,1.4181,object,natural,natural,1,0.2879,NR,0,999.0000
96,1,96,226.5845,1.4159,object,manmade,manmade,1,0.2577,NR,0,999.0000
97,1,97,228.0845,1.4169,object,manmade,NR,0,999.0000,natural,0,0.0297
98,1,98,229.5870,1.4141,object,natural,NR,0,999.0000,natural,1,0.1400
99,1,99,231.0987,10.4019,rest,rest,rest,1,999.0000,NR,1,0.0000
100,1,100,241.6263,1.3755,place,indoor,NR,0,999.0000,indoor,1,0.0984
101,1,101,243.1283,1.3722,place,outdoor,outdoor,1,0.3002,NR,0,999.0000
102,1,102,244.5920,1.4091,place,indoor,indoor,1,0.3678,NR,0,999.0000
103,1,103,246.0892,1.4113,place,indoor,indoor,1,0.4013,NR,0,999.0000
104,1,104,247.5889,1.4113,place,indoor,NR,0,999.0000,indoor,1,0.0590
105,1,105,249.0888,1.4125,place,outdoor,NR,0,999.0000,outdoor,1,0.1575
106,1,106,250.5921,1.4092,place,outdoor,indoor,0,0.3513,NR,0,999.0000
107,1,107,252.0921,1.4089,place,outdoor,NR,0,999.0000,outdoor,1,0.0941
108,1,108,253.5928,1.4074,place,indoor,NR,0,999.0000,indoor,1,0.0318
109,1,109,255.0911,1.4094,place,outdoor,outdoor,1,0.3698,NR,0,999.0000
110,1,110,256.5995,10.4007,rest,rest,rest,1,999.0000,NR,1,0.0000
111,1,111,267.1347,1.3670,object,natural,NR,0,999.0000,natural,1,0.2944
112,1,112,268.6376,1.3630,object,manmade,NR,0,999.0000,manmade,1,0.2991
113,1,113,270.0952,1.4058,object,manmade,NR,0,999.0000,manmade,1,0.3116
114,1,114,271.5953,1.4050,object,manmade,NR,0,999.0000,natural,0,0.2067
115,1,115,273.0957,1.4044,object,manmade,NR,0,999.0000,natural,0,0.2204
116,1,116,274.5960,1.4043,object,natural,NR,0,999.0000,natural,1,0.2786
117,1,117,276.0985,1.4026,object,natural,NR,0,999.0000,natural,1,0.1886
118,1,118,277.5973,1.4038,object,manmade,NR,0,999.0000,NR,0,999.0000
119,1,119,279.0993,1.4016,object,natural,manmade,0,0.0486,natural,1,0.2382
120,1,120,280.5984,1.4020,object,natural,NR,0,999.0000,natural,1,0.1304
121,1,121,282.1162,10.3843,rest,rest,rest,1,999.0000,NR,1,0.0000
122,1,122,292.6456,1.3557,face,male,NR,0,999.0000,female,0,0.0356
123,1,123,294.1463,1.3540,face,female,female,1,0.2649,NR,0,999.0000
124,1,124,295.6015,1.3989,face,male,NR,0,999.0000,male,1,0.1300
125,1,125,297.1004,1.4003,face,female,NR,0,999.0000,female,1,0.0203
126,1,126,298.6015,1.3986,face,female,NR,0,999.0000,female,1,0.2197
127,1,127,300.1016,1.3990,face,male,NR,0,999.0000,male,1,0.1342
128,1,128,301.6034,1.3969,face,female,NR,0,999.0000,female,1,0.0501
129,1,129,303.1030,1.3977,face,male,NR,0,999.0000,male,1,0.2401
130,1,130,304.6048,1.3962,face,male,female,0,0.3135,NR,0,999.0000
131,1,131,306.1050,1.3955,face,female,NR,0,999.0000,female,1,0.0808
132,1,132,307.6168,10.3837,rest,rest,rest,1,999.0000,NR,1,0.0000
133,2,1,12.0022,1.4982,object,natural,NR,0,999.0000,natural,1,0.0729
134,2,2,13.6148,1.3853,object,natural,NR,0,999.0000,natural,1,0.1333
135,2,3,15.1089,1.3924,object,natural,NR,0,999.0000,natural,1,0.1424
136,2,4,16.6124,1.3880,object,natural,NR,0,999.0000,NR,0,999.0000
137,2,5,18.1114,1.3900,object,manmade,manmade,1,0.2417,NR,0,999.0000
138,2,6,19.6122,1.3882,object,manmade,manmade,1,0.3275,NR,0,999.0000
139,2,7,21.1122,1.3890,object,manmade,natural,0,0.3507,NR,0,999.0000
140,2,8,22.6145,1.3868,object,natural,NR,0,999.0000,manmade,0,0.0148
141,2,9,24.1155,1.3846,object,manmade,NR,0,999.0000,manmade,1,0.1727
142,2,10,25.6147,1.3861,object,manmade,NR,0,999.0000,natural,0,0.0177
143,2,11,27.1241,10.3767,rest,rest,rest,1,999.0000,NR,1,0.0000
144,2,12,37.6261,1.3755,face,female,NR,0,999.0000,female,1,0.2446
145,2,13,39.1280,1.3736,face,female,NR,0,999.0000,female,1,0.0671
146,2,14,40.6203,1.3809,face,female,NR,0,999.0000,female,1,0.0078
147,2,15,42.1214,1.3796,face,female,NR,0,999.0000,female,1,0.0807
148,2,16,43.6433,1.3575,face,female,male,0,0.2236,NR,0,999.0000
149,2,17,45.1207,1.3801,face,male,male,1,0.3683,NR,0,999.0000
150,2,18,46.6255,1.3755,face,male,NR,0,999.0000,NR,0,999.0000
151,2,19,48.1257,1.3756,face,male,NR,0,999.0000,male,1,0.0077
152,2,20,49.6267,1.3739,face,male,NR,0,999.0000,male,1,0.0287
153,2,21,51.1262,1.3745,face,male,NR,0,999.0000,female,0,0.0493
154,2,22,52.6413,10.3599,rest,rest,rest,1,999.0000,NR,1,0.0000
155,2,23,63.1697,1.3308,object,natural,NR,0,999.0000,natural,1,0.1350
156,2,24,64.6713,1.3296,object,natural,NR,0,999.0000,natural,1,0.0531
157,2,25,66.1287,1.3720,object,manmade,NR,0,999.0000,manmade,1,0.0244
158,2,26,67.6295,1.3719,object,natural,NR,0,999.0000,natural,1,0.2217
159,2,27,69.1318,1.3693,object,manmade,NR,0,999.0000,natural,0,0.0583
160,2,28,70.6310,1.3692,object,manmade,NR,0,999.0000,manmade,1,0.3578
161,2,29,72.1308,1.3693,object,natural,NR,0,999.0000,natural,1,0.0566
162,2,30,73.6311,1.3695,object,natural,NR,0,999.0000,natural,1,0.0925
163,2,31,75.1342,1.3669,object,manmade,NR,0,999.0000,manmade,1,0.0168
164,2,32,76.6336,1.3665,object,manmade,NR,0,999.0000,NR,0,999.0000
165,2,33,78.1423,10.3583,rest,rest,rest,1,999.0000,NR,1,0.0000
166,2,34,88.7104,1.2913,place,indoor,NR,0,999.0000,indoor,1,0.3361
167,2,35,90.4042,1.0983,place,outdoor,NR,0,999.0000,outdoor,1,0.3666
168,2,36,91.7054,1.2951,place,indoor,NR,0,999.0000,indoor,1,0.0522
169,2,37,93.1347,1.3658,place,outdoor,outdoor,1,0.3195,NR,0,999.0000
170,2,38,94.6334,1.3671,place,indoor,NR,0,999.0000,indoor,1,0.0825
171,2,39,96.1455,1.3552,place,outdoor,NR,0,999.0000,outdoor,1,0.0210
172,2,40,97.6395,1.3617,place,indoor,indoor,1,0.2939,NR,0,999.0000
173,2,41,99.1360,1.3648,place,outdoor,NR,0,999.0000,outdoor,1,0.0413
174,2,42,100.6351,1.3652,place,outdoor,NR,0,999.0000,outdoor,1,0.1909
175,2,43,102.1368,1.3633,place,indoor,NR,0,999.0000,indoor,1,0.2268
176,2,44,103.6425,10.3579,rest,rest,rest,1,999.0000,NR,1,0.0000
177,2,45,114.3161,1.1843,face,male,NR,0,999.0000,male,1,0.3465
178,2,46,115.8667,1.1354,face,male,NR,0,999.0000,male,1,0.2517
179,2,47,117.1669,1.3344,face,male,NR,0,999.0000,male,1,0.0193
180,2,48,118.6653,1.3356,face,female,NR,0,999.0000,male,0,0.0588
181,2,49,120.1870,1.3135,face,female,NR,0,999.0000,female,1,0.2270
182,2,50,121.6870,1.3136,face,male,NR,0,999.0000,male,1,0.2331
183,2,51,123.2666,1.2340,face,female,NR,0,999.0000,female,1,0.1454
184,2,52,124.8001,1.2008,face,male,NR,0,999.0000,male,1,0.3077
185,2,53,126.2028,1.2980,face,female,NR,0,999.0000,female,1,0.0286
186,2,54,127.7441,1.2571,face,female,NR,0,999.0000,male,0,0.1061
187,2,55,129.2932,10.2074,rest,rest,rest,1,999.0000,NR,1,0.0000
188,2,56,145.2500,0.0303,place,outdoor,NR,0,999.0000,NR,0,999.0000
189,2,57,145.6417,0.0390,place,outdoor,NR,0,999.0000,NR,0,999.0000
190,2,58,145.9351,0.1781,place,outdoor,NR,0,999.0000,NR,0,999.0000
191,2,59,146.3219,0.0249,place,indoor,NR,0,999.0000,NR,0,999.0000
192,2,60,146.5427,0.4577,place,outdoor,NR,0,999.0000,NR,0,999.0000
193,2,61,147.1758,1.3245,place,outdoor,NR,0,999.0000,outdoor,1,0.2173
194,2,62,148.7213,1.2796,place,indoor,NR,0,999.0000,indoor,1,0.3009
195,2,63,150.2158,1.2856,place,indoor,NR,0,999.0000,outdoor,0,0.1326
196,2,64,151.8317,1.1692,place,indoor,NR,0,999.0000,indoor,1,0.5318
197,2,65,153.2672,1.2343,place,indoor,NR,0,999.0000,outdoor,0,0.1073
198,2,66,154.7771,10.2250,rest,rest,rest,1,999.0000,NR,1,0.0000
199,2,67,165.2982,1.2021,face,female,NR,0,999.0000,male,0,0.3098
200,2,68,166.7757,1.2262,face,male,NR,0,999.0000,male,1,0.2212
201,2,69,168.2938,1.2071,face,male,NR,0,999.0000,male,1,0.2130
202,2,70,169.7489,1.2517,face,female,NR,0,999.0000,female,1,0.0526
203,2,71,171.2576,1.2433,face,male,NR,0,999.0000,male,1,0.2999
204,2,72,172.6581,1.3428,face,female,female,1,0.2961,NR,0,999.0000
205,2,73,174.2050,1.2963,face,male,NR,0,999.0000,male,1,0.1218
206,2,74,179.3247,0.0409,face,male,NR,0,999.0000,NR,0,999.0000
207,2,75,179.5261,0.0387,face,female,NR,0,999.0000,NR,0,999.0000
208,2,76,179.8080,0.1922,face,female,NR,0,999.0000,male,0,0.0369
209,2,77,180.1783,10.3230,rest,rest,rest,1,999.0000,NR,1,0.0000
210,2,78,190.7775,1.2227,place,outdoor,NR,0,999.0000,outdoor,1,0.4113
211,2,79,192.3354,1.1667,place,outdoor,NR,0,999.0000,outdoor,1,0.4637
212,2,80,193.7967,1.2037,place,indoor,NR,0,999.0000,indoor,1,0.2503
213,2,81,195.2496,1.2516,place,outdoor,NR,0,999.0000,outdoor,1,0.3410
214,2,82,196.7202,1.2803,place,outdoor,NR,0,999.0000,outdoor,1,0.1861
215,2,83,198.2647,1.2368,place,indoor,NR,0,999.0000,indoor,1,0.3761
216,2,84,199.8326,1.1682,place,indoor,NR,0,999.0000,indoor,1,0.3064
217,2,85,201.1600,1.3405,place,outdoor,NR,0,999.0000,indoor,0,0.0514
218,2,86,202.7833,1.2175,place,indoor,NR,0,999.0000,outdoor,0,0.1524
219,2,87,204.4100,1.0901,place,indoor,NR,0,999.0000,indoor,1,0.3423
220,2,88,205.6950,10.3068,rest,rest,rest,1,999.0000,NR,1,0.0000
221,2,89,216.6914,0.8103,object,manmade,NR,0,999.0000,manmade,1,0.6195
222,2,90,217.7550,1.2470,object,natural,NR,0,999.0000,natural,1,0.2044
223,2,91,219.2379,1.2623,object,manmade,NR,0,999.0000,manmade,1,0.3913
224,2,92,220.6610,1.3400,object,manmade,NR,0,999.0000,manmade,1,0.1320
225,2,93,222.1631,1.3372,object,manmade,NR,0,999.0000,manmade,1,0.0558
226,2,94,223.6625,1.3384,object,natural,NR,0,999.0000,manmade,0,0.1129
227,2,95,225.1645,1.3362,object,natural,NR,0,999.0000,natural,1,0.1775
228,2,96,226.6650,1.3358,object,natural,NR,0,999.0000,natural,1,0.1335
229,2,97,228.1657,1.3344,object,natural,NR,0,999.0000,natural,1,0.2924
230,2,98,229.6649,1.3361,object,manmade,NR,0,999.0000,manmade,1,0.0867
231,2,99,231.1789,10.3218,rest,rest,rest,1,999.0000,NR,1,0.0000
232,2,100,241.7445,1.2558,place,indoor,NR,0,999.0000,indoor,1,0.3181
233,2,101,243.2594,1.2416,place,outdoor,NR,0,999.0000,outdoor,1,0.2172
234,2,102,244.7465,1.2543,place,outdoor,NR,0,999.0000,outdoor,1,0.1962
235,2,103,246.1687,1.3324,place,indoor,NR,0,999.0000,outdoor,0,0.1039
236,2,104,247.6694,1.3314,place,indoor,NR,0,999.0000,indoor,1,0.0882
237,2,105,249.1693,1.3322,place,outdoor,NR,0,999.0000,outdoor,1,0.2673
238,2,106,250.6721,1.3291,place,outdoor,NR,0,999.0000,outdoor,1,0.1024
239,2,107,252.1731,1.3275,place,outdoor,NR,0,999.0000,outdoor,1,0.1484
240,2,108,253.6736,1.3272,place,indoor,NR,0,999.0000,indoor,1,0.1127
241,2,109,255.1724,1.3285,place,indoor,outdoor,0,0.3182,NR,0,999.0000
242,2,110,256.6962,10.3039,rest,rest,rest,1,999.0000,NR,1,0.0000
243,2,111,267.2535,1.2469,object,manmade,NR,0,999.0000,manmade,1,0.3078
244,2,112,268.7548,1.2459,object,natural,NR,0,999.0000,natural,1,0.0501
245,2,113,270.2554,1.2452,object,natural,NR,0,999.0000,natural,1,0.0954
246,2,114,271.6750,1.3260,object,manmade,NR,0,999.0000,manmade,1,0.2227
247,2,115,273.1779,1.3228,object,manmade,natural,0,0.2938,NR,0,999.0000
248,2,116,274.6773,1.3229,object,natural,NR,0,999.0000,manmade,0,0.0390
249,2,117,276.1775,1.3230,object,manmade,NR,0,999.0000,natural,0,0.0669
250,2,118,277.6774,1.3228,object,natural,NR,0,999.0000,natural,1,0.0874
251,2,119,279.1776,1.3230,object,natural,NR,0,999.0000,natural,1,0.0649
252,2,120,280.6803,1.3202,object,manmade,NR,0,999.0000,manmade,1,0.0569
253,2,121,282.1968,10.3037,rest,rest,rest,1,999.0000,NR,1,0.0000
254,2,122,292.7638,1.2370,face,male,NR,0,999.0000,male,1,0.2477
255,2,123,294.2646,1.2373,face,female,NR,0,999.0000,female,1,0.1599
256,2,124,295.7667,1.2341,face,female,NR,0,999.0000,male,0,0.1464
257,2,125,297.1832,1.3172,face,male,NR,0,999.0000,male,1,0.0996
258,2,126,298.6822,1.3187,face,male,NR,0,999.0000,male,1,0.1925
259,2,127,300.1851,1.3160,face,female,NR,0,999.0000,female,1,0.2130
260,2,128,301.6849,1.3160,face,female,NR,0,999.0000,female,1,0.2240
261,2,129,303.1844,1.3169,face,male,NR,0,999.0000,male,1,0.2217
262,2,130,304.6860,1.3148,face,female,NR,0,999.0000,female,1,0.3287
263,2,131,306.1844,1.3165,face,male,NR,0,999.0000,male,1,0.2951
264,2,132,307.6974,10.3035,rest,rest,rest,1,999.0000,NR,1,0.0000
