index,run,trial,onset,duration,cond,repType,repCount,word,pic,resp,respRT,ISIresp,ISIrespRT
1,1,1,10.0019,2.0003,WI,4,1,CAMERA,dining_room,R,1.3633,NR,3.0000
2,1,2,22.0625,-10.0607,WI,4,1,CEREAL,florist_shop,R,1.4402,NR,3.0000
3,1,3,34.1211,-22.1194,WO,2,1,CHICKEN,phone_booth,NR,999.0000,UR,3.1857
4,1,4,46.1792,-34.1784,WO,2,1,LAMP,power_plant,UR,1.3161,NR,3.0000
5,1,5,58.2368,-46.2351,WI,4,1,CAGE,bakery,UR,1.6736,NR,3.0000
6,1,6,70.2950,-58.2931,WO,2,1,ROPE,marsh,R,1.8621,NR,3.0000
7,1,7,82.3533,-70.3519,WO,4,1,PIE,manufactured_home,R,1.2448,NR,3.0000
8,1,8,94.4117,-82.4105,WI,4,1,PIANO,elevator,R,0.8990,NR,3.0000
9,1,9,106.4693,-94.4680,WO,4,1,TROPHY,construction_site,R,1.9523,NR,3.0000
10,1,10,118.5277,-106.5255,WI,2,1,CORAL,limousine_interior,R,1.8770,NR,3.0000
11,1,11,130.5862,-118.5852,WO,2,1,BALLOON,balcony,R,1.4031,NR,3.0000
12,1,12,142.6438,-130.6420,WI,4,1,SHOVEL,badminton_court,R,2.0721,NR,3.0000
13,1,13,154.7027,-142.6995,WO,4,1,TYPEWRITER,fountain,R,2.3416,NR,6.1446
14,1,14,166.7625,-154.7608,WI,2,1,FAN,banquet_hall,R,1.4751,NR,3.0000
15,1,15,178.8210,-166.8191,WO,4,1,EMPEROR,moat,R,1.4088,NR,3.0000
16,1,16,190.8794,-178.8771,WO,4,2,PIE,manufactured_home,R,1.6551,NR,3.0000
17,1,17,202.9381,-190.9369,WI,4,1,PENNY,dentists_office,R,2.2207,NR,3.0000
18,1,18,214.9965,-202.9939,WI,2,1,VINE,bar,R,1.9296,NR,3.0000
19,1,19,227.0555,-215.0543,WI,4,2,CAMERA,dining_room,R,1.5759,NR,3.0000
20,1,20,239.1135,-227.1117,WO,4,2,TYPEWRITER,fountain,R,1.7714,NR,3.0000
21,1,21,251.1718,-239.1696,WI,2,1,MANURE,music_studio,R,1.7059,NR,3.0000
22,1,22,263.2304,-251.2285,WO,4,2,EMPEROR,moat,R,1.2721,NR,3.0000
23,1,23,275.2895,-263.2880,WO,4,2,TROPHY,construction_site,R,1.8522,NR,3.0000
24,1,24,287.3473,-275.3456,WO,4,1,WOLF,highway,R,1.2095,NR,3.0000
25,1,25,299.4060,-287.4047,WI,4,1,MOON,theater,R,1.9120,NR,3.0000
26,1,26,311.4639,-299.4622,WI,2,1,OPIUM,bookstore,R,2.8701,NR,3.0000
27,1,27,323.5221,-311.5208,WO,2,1,CROWN,formal_garden,R,1.2021,NR,3.0000
28,1,28,335.5806,-323.5789,WO,4,1,SHEEP,forest_path,R,1.4316,NR,3.0000
29,1,29,347.6390,-335.6369,WO,4,2,SHEEP,forest_path,R,1.3494,NR,3.0000
30,1,30,359.6982,-347.6972,WI,4,2,PIANO,elevator,R,0.7467,NR,3.0000
31,1,31,371.7559,-359.7539,WI,4,2,CEREAL,florist_shop,R,1.0644,NR,3.0000
32,1,32,383.8145,-371.8134,WO,2,1,SNOW,islet,UR,2.5816,NR,3.0000
33,1,33,395.8725,-383.8706,WI,4,2,PENNY,dentists_office,R,1.6037,NR,3.0000
34,1,34,407.9313,-395.9297,WI,2,1,NIGHTGOWN,office,R,2.5938,NR,3.0000
35,1,35,419.9902,-407.9883,WI,4,2,SHOVEL,badminton_court,R,1.3435,NR,3.0000
36,1,36,432.0487,-420.0470,WO,4,2,WOLF,highway,R,1.0768,NR,3.0000
37,1,37,444.1071,-432.1052,WI,2,1,TIGER,stable,R,1.9382,NR,3.0000
38,1,38,456.1661,-444.1639,WO,4,1,WRENCH,ice_shelf,R,2.2958,NR,3.0000
39,1,39,468.2251,-456.2229,WI,4,2,CAGE,bakery,NR,999.0000,NR,3.0000
40,1,40,480.2842,-468.2827,WO,2,1,OYSTER,plaza,R,1.5276,NR,3.0000
41,1,41,492.3427,-480.3406,WI,4,2,MOON,theater,R,0.7176,NR,3.0000
42,1,42,504.4017,-492.3997,WO,4,2,WRENCH,ice_shelf,R,1.3300,NR,3.0000
43,2,19,10.0023,1.9986,WO,4,1,JACKET,pond,R,1.3879,NR,3.0000
44,2,20,22.0620,-10.0611,WI,4,1,HONEY,butchers_shop,R,1.3627,NR,3.0000
45,2,21,34.1197,-22.1184,WI,4,2,HONEY,butchers_shop,R,1.2958,NR,3.0000
46,2,22,46.1771,-34.1747,WO,2,1,OMELET,hill,UR,1.8285,NR,3.0000
47,2,23,58.2359,-46.2340,WO,4,1,BROOM,creek,UR,1.4105,NR,3.0000
48,2,24,70.2942,-58.2923,WO,4,1,ACCORDIAN,ice_floe,UR,1.6471,NR,3.0000
49,2,25,82.3521,-70.3509,WI,2,1,GOAT,diner,R,1.1807,NR,3.0000
50,2,26,94.4098,-82.4090,WO,4,1,RAKE,mountain,R,1.8269,NR,3.0000
51,2,27,106.4675,-94.4652,WI,4,1,OTTER,jacuzzi,R,1.1127,NR,3.0000
52,2,28,118.5259,-106.5252,WO,2,1,OLIVE,railroad_track,R,1.6375,NR,3.0000
53,2,29,130.5833,-118.5821,WO,4,1,SCOOTER,picnic_area,R,2.0855,NR,3.0000
54,2,30,142.6406,-130.6397,WO,2,1,CRAB,baseball_field,UR,2.6712,NR,3.0000
55,2,31,154.6981,-142.6960,WI,4,1,ANCHOR,library,R,1.3013,NR,3.0000
56,2,32,166.7565,-154.7547,WO,4,2,ACCORDIAN,ice_floe,R,1.3640,NR,3.0000
57,2,33,178.8146,-166.8130,WI,4,1,DUST,squash_court,R,1.4204,NR,8.1129
58,2,34,190.8726,-178.8710,WI,2,1,SCROLL,movie_theater,NR,1.5726,NR,4.2639
59,2,35,202.9307,-190.9290,WI,4,1,SWORD,beauty_salon,R,2.6061,NR,3.6614
60,2,36,214.9896,-202.9869,WO,2,1,EASEL,herb_garden,NR,1.4396,NR,7.8219
61,2,37,227.0487,-215.0459,WI,2,1,SEAL,ice_cream_parlor,UR,1.7753,UR,7.8092
62,2,38,239.1081,-227.1073,WI,4,1,TOWEL,catacomb,R,2.0827,NR,3.0000
63,2,39,251.1659,-239.1649,WO,4,2,RAKE,mountain,R,1.2738,NR,5.7543
64,2,40,263.2235,-251.2227,WO,4,2,JACKET,pond,R,0.9246,NR,3.0000
65,2,41,275.2816,-263.2805,WI,2,1,KNIFE,archive,R,1.6028,NR,3.0000
66,2,42,287.3395,-275.3374,WO,4,2,BROOM,creek,R,0.9696,NR,3.0000
67,2,43,299.3984,-287.3973,WO,4,1,BATON,field_cultivated,UR,1.8666,NR,3.0000
68,2,44,311.4568,-299.4547,WI,4,1,TRIBE,baggage_claim,UR,1.6161,NR,3.0000
69,2,45,323.5156,-311.5145,WI,4,2,TRIBE,baggage_claim,R,1.2186,NR,3.0000
70,2,46,335.5741,-323.5721,WO,4,1,HAWK,lighthouse,R,1.3156,NR,3.0000
71,2,47,347.6326,-335.6315,WI,4,2,ANCHOR,library,R,0.8881,NR,3.0000
72,2,48,359.6904,-347.6886,WI,4,2,DUST,squash_court,R,0.8629,NR,3.0000
73,2,49,371.7490,-359.7482,WI,4,2,SWORD,beauty_salon,R,1.1484,NR,3.0000
74,2,50,383.8067,-371.8059,WO,4,2,HAWK,lighthouse,R,1.5092,NR,3.0000
75,2,51,395.8647,-383.8639,WO,2,1,GLOVE,bridge,R,1.4229,NR,3.0000
76,2,52,407.9221,-395.9204,WO,2,1,SUBMARINE,crosswalk,R,1.7440,NR,3.0000
77,2,53,419.9807,-407.9785,WI,4,2,OTTER,jacuzzi,R,0.8372,NR,3.0000
78,2,54,432.0396,-420.0378,WI,2,1,TORNADO,parlor,R,2.0123,NR,3.0000
79,2,55,444.0980,-432.0961,WI,4,2,TOWEL,catacomb,R,0.9620,NR,3.0000
80,2,56,456.1568,-444.1556,WO,2,1,PENCIL,basketball_court,R,1.4944,NR,3.0000
81,2,57,468.2147,-456.2130,WO,4,2,SCOOTER,picnic_area,R,1.4499,NR,3.0000
82,2,58,480.2732,-468.2711,WI,2,1,STOMACH,game_room,UR,1.8851,NR,3.0000
83,2,59,492.3325,-480.3316,WO,4,2,BATON,field_cultivated,UR,2.3881,NR,3.0000
84,2,60,504.3900,-492.3889,WI,2,1,HATCHET,swimming_pool,UR,2.1169,NR,3.0000
85,3,37,10.0012,1.9997,WO,2,1,SAIL,chalet,R,2.1107,NR,3.0000
86,3,38,165.6366,-153.6348,WO,4,1,RUDDER,lido_deck,R,1.4954,NR,3.0000
87,3,39,177.6937,-165.6917,WI,4,1,RIFLE,assembly_line,R,1.4932,NR,3.0000
88,3,40,189.7509,-177.7498,WI,4,1,TURTLE,synagogue,R,2.5780,NR,3.0000
89,3,41,201.8074,-189.8059,WO,4,2,RUDDER,lido_deck,R,1.2495,NR,3.0000
90,3,42,213.8645,-201.8628,WI,4,1,BONE,home_office,R,1.9513,NR,3.0000
91,3,43,225.9225,-213.9202,WO,2,1,FIRE,beach,R,1.4905,NR,3.0000
92,3,44,237.9808,-225.9795,WO,4,1,ROCKER,barn,R,1.8487,NR,3.0000
93,3,45,250.0385,-238.0369,WO,4,1,BANANA,athletic_field,R,2.7814,NR,3.0000
94,3,46,262.0954,-250.0937,WI,2,1,RACQUET,galley,R,2.3093,NR,3.0000
95,3,47,274.1530,-262.1509,WO,4,1,CHEESE,playground,R,1.5364,NR,3.0000
96,3,48,286.2111,-274.2100,WI,4,1,CARROT,engine_room,UR,2.4803,NR,3.0000
97,3,49,298.2681,-286.2660,WI,2,1,BELL,playroom,R,1.3569,NR,3.0000
98,3,50,310.3265,-298.3245,WO,2,1,CRADLE,harbor,NR,999.0000,UR,3.2302
99,3,51,322.3843,-310.3820,WO,2,1,SHOWER,motel,R,2.5340,NR,3.0000
100,3,52,334.4423,-322.4406,WI,4,1,THONG,fastfood_restaurant,R,1.3643,NR,3.0000
101,3,53,346.5001,-334.4986,WI,4,2,THONG,fastfood_restaurant,R,1.1475,NR,3.0000
102,3,54,358.5572,-346.5559,WO,2,1,PUDDLE,river,R,1.1607,NR,3.0000
103,3,55,370.6147,-358.6125,WO,4,1,WALLET,electrical_substation,R,1.2930,NR,3.0000
104,3,56,382.6727,-370.6707,WI,2,1,UMBRELLA,athletic_field,UR,1.6279,NR,3.0000
105,3,57,394.7304,-382.7296,WI,2,1,JUGGLER,hospital_room,R,1.3120,NR,3.0000
106,3,58,406.7873,-394.7855,WI,4,1,TELEGRAPH,auto_factory,R,1.6228,NR,3.0000
107,3,59,418.8452,-406.8440,WO,4,2,WALLET,electrical_substation,R,1.0756,NR,3.0000
108,3,60,430.9022,-418.9008,WI,4,2,TELEGRAPH,auto_factory,R,1.0978,NR,3.0000
109,3,61,442.9594,-430.9586,WO,2,1,BARREL,boathouse,R,1.8946,NR,3.0000
110,3,62,455.0159,-443.0135,WO,4,2,ROCKER,barn,R,1.1089,NR,3.0000
111,3,63,467.0746,-455.0733,WI,2,1,ORANGE,ball_pit,R,1.1616,NR,3.0000
112,3,64,479.1319,-467.1298,WO,4,1,BOWL,basilica,R,1.1119,NR,3.0000
113,3,65,491.1904,-479.1882,WI,4,2,BONE,home_office,R,0.8279,NR,3.0000
114,3,66,503.2484,-491.2462,WI,4,2,CARROT,engine_room,R,1.7863,NR,3.0000
115,3,67,515.3066,-503.3046,WI,4,1,SCOTCH,bus_interior,R,2.1196,NR,3.0000
116,3,68,527.3646,-515.3638,WO,4,2,BOWL,basilica,R,0.7584,NR,3.0000
117,3,69,539.4213,-527.4203,WO,4,1,SCAB,iceberg,R,1.7526,NR,3.0000
118,3,70,551.4783,-539.4764,WI,2,1,ELEPHANT,basement,R,1.7653,NR,3.0000
119,3,71,563.5358,-551.5345,WO,2,1,QUAIL,hangar,R,1.7614,NR,3.0000
120,3,72,575.5926,-563.5906,WO,4,2,BANANA,athletic_field,R,1.6641,NR,3.0000
121,3,73,587.6507,-575.6486,WI,2,1,MUSTARD,reception,R,1.5127,NR,3.0000
122,3,74,599.7082,-587.7072,WI,4,2,RIFLE,assembly_line,R,1.3276,NR,3.0000
123,3,75,611.7651,-599.7642,WO,4,2,CHEESE,playground,R,2.1181,NR,3.0000
124,3,76,623.8218,-611.8198,WI,4,2,SCOTCH,bus_interior,R,0.9867,NR,3.0000
125,3,77,635.8793,-623.8781,WO,4,2,SCAB,iceberg,R,0.8991,NR,3.0000
126,3,78,647.9368,-635.9347,WI,4,2,TURTLE,synagogue,NR,999.0000,NR,3.0000
127,4,55,10.0016,1.9996,WI,2,1,MAP,cloister,R,1.0682,NR,3.0000
128,4,56,22.0640,-10.0617,WO,2,1,SARDINE,cliff,R,1.9264,NR,3.0000
129,4,57,34.1253,-22.1233,WO,2,1,HARPOON,bullring,R,1.6538,NR,3.0000
130,4,58,46.1866,-34.1853,WI,4,1,TOAST,control_room,R,2.1710,NR,3.0000
131,4,59,58.2475,-46.2466,WI,4,1,NEEDLE,candy_store,UR,2.5304,NR,3.0000
132,4,60,70.3075,-58.3052,WO,4,1,BOOT,ruin,R,1.6087,NR,3.0000
133,4,61,82.3681,-70.3669,WO,4,1,BABY,arch,UR,2.1346,NR,3.0000
134,4,62,94.4279,-82.4262,WI,4,1,MEDICINE,dorm_room,R,1.1940,NR,3.0000
135,4,63,106.4902,-94.4891,WI,2,1,PANTS,escalator,R,1.0005,NR,3.0000
136,4,64,118.5502,-106.5489,WO,4,1,BROWNIE,corral,R,1.2855,R,11.5050
137,4,65,130.6102,-118.6087,WO,4,1,ARMOR,badlands,R,2.4762,NR,3.0000
138,4,66,142.6702,-130.6679,WI,4,2,TOAST,control_room,R,1.6247,NR,3.0000
139,4,67,154.7310,-142.7299,WO,4,2,BABY,arch,UR,0.9538,NR,3.0000
140,4,68,166.7919,-154.7886,WO,4,2,BROWNIE,corral,R,0.7948,NR,3.4223
141,4,69,178.8536,-166.8523,WI,4,1,DOVE,living_room,UR,2.1181,NR,3.0000
142,4,70,190.9133,-178.9118,WO,2,1,POSTER,castle,R,1.8546,NR,3.0000
143,4,71,202.9739,-190.9722,WI,2,1,FOX,laundromat,NR,999.0000,NR,3.0000
144,4,72,215.0343,-203.0330,WI,2,1,ASPARAGUS,bazaar,R,1.1410,NR,3.0000
145,4,73,227.0948,-215.0928,WI,2,1,ROCK,optician,R,1.8271,NR,3.0000
146,4,74,239.1553,-227.1532,WO,4,2,ARMOR,badlands,R,0.9829,NR,3.0000
147,4,75,251.2163,-239.2144,WO,4,1,BAYONET,lock_chamber,R,1.5325,NR,3.0000
148,4,76,263.2779,-251.2759,WI,4,1,DIAMOND,music_store,R,1.5941,NR,3.0000
149,4,77,275.3387,-263.3367,WI,4,1,HOOK,cockpit,NR,999.0000,R,3.0829
150,4,78,287.4002,-275.3988,WO,2,1,YACHT,hot_spring,R,1.3403,NR,3.0000
151,4,79,299.4604,-287.4584,WO,2,1,KEG,rock_arch,R,1.3778,NR,3.0000
152,4,80,311.5215,-299.5203,WI,4,2,MEDICINE,dorm_room,R,0.7205,NR,3.0000
153,4,81,323.5819,-311.5809,WO,4,1,ORCHID,mausoleum,R,1.0372,NR,3.0000
154,4,82,335.6417,-323.6394,WI,4,1,BOAT,bedroom,R,1.2037,NR,3.0000
155,4,83,347.7033,-335.7021,WI,4,2,NEEDLE,candy_store,R,0.8160,NR,3.0000
156,4,84,359.7642,-347.7619,WO,2,1,LANTERN,pagoda,R,1.1672,NR,9.7533
157,4,85,371.8253,-359.8245,WI,4,2,HOOK,cockpit,UR,1.4509,NR,3.0000
158,4,86,383.8848,-371.8831,WO,4,2,BOOT,ruin,R,0.7279,NR,3.0000
159,4,87,395.9456,-383.9438,WO,4,2,BAYONET,lock_chamber,R,0.8467,NR,3.0000
160,4,88,408.0070,-396.0059,WI,4,2,BOAT,bedroom,R,0.9061,NR,3.0000
161,4,89,420.0671,-408.0652,WO,4,1,ROSARY,mountain_snowy,R,1.1674,NR,3.0000
162,4,90,432.1282,-420.1261,WO,2,1,VODKA,dock,R,1.0545,NR,3.0000
163,4,91,444.1896,-432.1880,WI,2,1,CANE,closet,R,1.0120,NR,3.0000
164,4,92,456.2499,-444.2466,WI,4,2,DIAMOND,music_store,R,0.8962,NR,3.0000
165,4,93,468.3122,-456.3106,WO,4,2,ORCHID,mausoleum,R,0.6780,NR,3.0000
166,4,94,480.3725,-468.3704,WO,4,2,ROSARY,mountain_snowy,R,0.7461,NR,3.0000
167,4,95,492.4333,-480.4319,WI,2,1,SHRIMP,gymnasium,R,1.2575,NR,3.0000
168,4,96,504.4942,-492.4930,WI,4,2,DOVE,living_room,UR,2.4294,NR,3.0000
169,5,73,10.0018,1.9996,WO,2,1,POTATO,rope_bridge,R,1.6802,NR,3.0000
170,5,74,22.0615,-10.0601,WO,4,1,DRUM,house,R,1.3469,NR,3.0000
171,5,75,34.1193,-22.1179,WO,4,1,WITCH,rice_paddy,R,1.9992,NR,3.0000
172,5,76,46.1766,-34.1753,WI,4,1,LION,lecture_room,UR,2.6543,NR,3.0000
173,5,77,58.2339,-46.2330,WI,4,1,ICICLE,shopping_mall,R,1.3217,NR,3.0000
174,5,78,70.2912,-58.2897,WO,2,1,DESK,canyon,R,2.9428,NR,3.0000
175,5,79,82.3485,-70.3466,WI,4,1,APPLE,biology_laboratory,R,1.3119,NR,3.0000
176,5,80,94.4068,-82.4049,WI,4,2,APPLE,biology_laboratory,R,0.7821,NR,3.0000
177,5,81,106.4646,-94.4629,WO,4,1,DOUGHNUT,cottage_garden,R,1.3214,NR,3.0000
178,5,82,118.5227,-106.5215,WO,4,1,NAPKIN,fishpond,R,1.5729,NR,3.0000
179,5,83,130.5801,-118.5781,WI,4,1,WAND,toyshop,R,1.2233,NR,3.0000
180,5,84,142.6382,-130.6370,WI,4,1,CAMEL,ballroom,R,0.8089,NR,3.0000
181,5,85,154.6959,-142.6939,WO,4,2,NAPKIN,fishpond,R,0.9782,NR,3.0000
182,5,86,166.7540,-154.7525,WO,4,1,CHOCOLATE,ocean,R,1.4226,NR,3.0000
183,5,87,178.8121,-166.8105,WO,4,2,CHOCOLATE,ocean,R,0.7455,NR,3.0000
184,5,88,190.8702,-178.8689,WI,4,2,ICICLE,shopping_mall,R,0.9216,NR,3.0000
185,5,89,202.9276,-190.9257,WO,2,1,SPATULA,oilrig,R,1.2958,NR,3.0000
186,5,90,214.9861,-202.9848,WI,2,1,CLARINET,restaurant,R,1.0639,NR,3.0000
187,5,91,227.0438,-215.0425,WI,4,2,CAMEL,ballroom,R,0.7272,NR,3.0000
188,5,92,239.1020,-227.1000,WO,4,1,HELMET,dam,R,1.1601,NR,3.0000
189,5,93,251.1605,-239.1582,WO,4,2,HELMET,dam,R,0.8045,NR,3.0000
190,5,94,263.2190,-251.2168,WI,2,1,BASKET,kitchenette,R,1.7917,NR,3.0000
191,5,95,275.2782,-263.2766,WO,2,1,MUSSEL,butte,R,2.0953,NR,3.0000
192,5,96,287.3360,-275.3330,WO,2,1,QUARTER,oil_refinery,R,1.2140,NR,3.0000
193,5,97,299.3959,-287.3939,WO,4,2,DOUGHNUT,cottage_garden,R,1.0648,NR,3.0000
194,5,98,311.4543,-299.4531,WI,2,1,SLIPPER,ice_skating_rink,R,1.2283,NR,3.0000
195,5,99,323.5118,-311.5110,WI,2,1,CANARY,volleyball_court,R,1.4809,NR,3.0000
196,5,100,335.5691,-323.5679,WI,4,1,MEDAL,drugstore,R,1.5892,NR,3.0000
197,5,101,347.6267,-335.6245,WO,2,1,GLOBE,hayfield,R,1.3784,NR,3.0000
198,5,102,359.6860,-347.6847,WI,4,1,TABLE,museum,R,1.9575,NR,3.0000
199,5,103,371.7438,-359.7429,WO,4,1,LIGHTNING,gazebo,R,1.4583,NR,3.0000
200,5,104,383.8011,-371.7998,WI,2,1,FIDDLE,lobby,R,1.1641,NR,3.0000
201,5,105,395.8597,-383.8588,WI,2,1,FROG,nursery,R,1.4092,NR,3.0000
202,5,106,407.9171,-395.9149,WO,2,1,QUILT,cemetery,R,2.5749,NR,3.0000
203,5,107,419.9759,-407.9744,WI,2,1,PASTE,garage,R,1.5873,NR,3.0000
204,5,108,432.0339,-420.0328,WI,4,2,MEDAL,drugstore,R,0.9178,NR,3.0000
205,5,109,444.0914,-432.0901,WO,4,2,DRUM,house,R,1.0614,NR,3.0000
206,5,110,456.1495,-444.1473,WO,4,2,LIGHTNING,gazebo,R,1.0914,NR,3.0000
207,5,111,468.2081,-456.2071,WI,4,2,TABLE,museum,R,1.2518,NR,3.0000
208,5,112,480.2658,-468.2648,WO,4,2,WITCH,rice_paddy,R,0.5524,NR,3.0000
209,5,113,492.3231,-480.3212,WI,4,2,LION,lecture_room,R,0.8740,NR,3.0000
210,5,114,504.3811,-492.3800,WI,4,2,WAND,toyshop,R,0.8043,NR,3.0000
211,6,91,10.0024,1.9987,WO,4,1,BENCH,campsite,R,1.3226,NR,3.0000
212,6,92,22.0709,-10.0691,WO,4,1,PYTHON,nuclear_power_plant,R,1.3674,NR,3.0000
213,6,93,34.1368,-22.1361,WI,2,1,KALE,kindergarden_classroom,R,1.4316,NR,3.0000
214,6,94,46.2015,-34.1994,WI,4,1,TULIP,cathedral,R,1.1468,NR,3.0000
215,6,95,58.2670,-46.2657,WO,2,1,STOOL,park,R,1.0538,NR,3.0000
216,6,96,70.3325,-58.3308,WI,2,1,SUNBURN,sauna,R,1.0418,NR,3.0000
217,6,97,82.3979,-70.3960,WO,2,1,NOODLE,boat_deck,R,1.4438,NR,3.0000
218,6,98,94.4636,-82.4615,WI,4,1,BANDIT,pulpit,R,0.9997,NR,3.0000
219,6,99,106.5299,-94.5280,WO,4,1,KILT,bamboo_forest,R,1.0760,NR,3.0000
220,6,100,118.5958,-106.5943,WO,4,1,PLUG,patio,R,1.3369,NR,3.0000
221,6,101,130.6617,-118.6601,WI,4,1,WINE,bistro,R,0.9055,NR,3.0000
222,6,102,142.7269,-130.7255,WI,4,2,WINE,bistro,R,0.8495,NR,3.0000
223,6,103,154.7920,-142.7899,WI,4,1,SEAWEED,pantry,R,1.3411,NR,3.0000
224,6,104,166.8585,-154.8567,WO,4,1,CANNON,fire_escape,R,1.5034,NR,3.0000
225,6,105,178.9243,-166.9228,WO,2,1,FORK,orchard,R,1.2582,NR,3.0000
226,6,106,190.9899,-178.9887,WI,4,1,ENVELOPE,childs_room,R,1.4359,NR,3.0000
227,6,107,203.0555,-191.0528,WI,4,1,RICE,shoe_shop,R,1.9294,NR,3.0000
228,6,108,215.1224,-203.1203,WI,4,2,BANDIT,pulpit,R,0.9340,NR,3.0000
229,6,109,227.1895,-215.1884,WO,2,1,ANT,inn,R,1.3333,NR,3.0000
230,6,110,239.2549,-227.2528,WI,4,2,TULIP,cathedral,R,0.9593,NR,3.0000
231,6,111,251.3216,-239.3195,WO,2,1,FENCE,bayou,R,1.8289,NR,3.0000
232,6,112,263.3879,-251.3871,WI,2,1,BUTTER,natural_history_museum,R,1.7492,NR,3.0000
233,6,113,275.4531,-263.4516,WI,2,1,CUCUMBER,cafeteria,R,1.6974,NR,3.0000
234,6,114,287.5199,-275.5184,WI,4,1,RABBIT,throne_room,R,1.5221,NR,3.0000
235,6,115,299.5857,-287.5847,WO,4,1,LIME,amusement_park,R,1.1552,NR,3.0000
236,6,116,311.6513,-299.6498,WO,4,2,KILT,bamboo_forest,R,0.8897,NR,3.0000
237,6,117,323.7172,-311.7158,WO,4,2,LIME,amusement_park,R,0.8579,NR,3.0000
238,6,118,335.7830,-323.7808,WI,4,2,RICE,shoe_shop,R,0.9267,NR,3.0000
239,6,119,347.8503,-335.8494,WI,4,2,SEAWEED,pantry,R,1.0414,NR,3.0000
240,6,120,359.9157,-347.9137,WO,4,2,BENCH,campsite,R,1.0308,NR,3.0000
241,6,121,371.9827,-359.9820,WO,4,1,MONKEY,landing_deck,R,1.3503,NR,3.0000
242,6,122,384.0479,-372.0466,WO,2,1,TOBACCO,kasbah,R,1.6199,NR,3.0000
243,6,123,396.3972,-384.3960,WI,4,2,RABBIT,throne_room,R,1.2675,NR,3.0000
244,6,124,408.4630,-396.4618,WO,4,2,MONKEY,landing_deck,R,0.9461,NR,3.0000
245,6,125,420.5286,-408.5268,WI,2,1,BLANKET,art_gallery,R,0.9988,NR,3.0000
246,6,126,432.5951,-420.5941,WO,2,1,WORM,igloo,R,0.9625,NR,3.0000
247,6,127,444.6604,-432.6592,WO,4,2,PLUG,patio,R,0.9727,NR,3.0000
248,6,128,456.7260,-444.7252,WO,4,2,CANNON,fire_escape,R,0.9914,NR,3.0000
249,6,129,468.7917,-456.7895,WI,2,1,ZIPPER,operating_room,R,0.7974,NR,3.0000
250,6,130,480.8586,-468.8576,WO,4,2,PYTHON,nuclear_power_plant,R,1.0126,NR,3.0000
251,6,131,492.9245,-480.9228,WI,2,1,DAISY,car_interior,R,1.6022,NR,3.0000
252,6,132,504.9905,-492.9888,WI,4,2,ENVELOPE,childs_room,R,1.1745,NR,3.0000
253,7,109,10.0029,1.9980,WI,4,3,CEREAL,florist_shop,R,1.9475,NR,3.0000
254,7,110,22.0693,-10.0683,WI,4,3,MOON,theater,R,1.0931,NR,3.0000
255,7,111,34.1337,-22.1318,WO,4,3,PIE,manufactured_home,R,1.1000,NR,3.0000
256,7,112,46.1994,-34.1986,WI,4,3,PIANO,elevator,R,0.5222,NR,3.0000
257,7,113,58.2635,-46.2627,WO,4,3,TYPEWRITER,fountain,R,0.8775,NR,3.0000
258,7,114,70.3272,-58.3260,WI,4,4,CEREAL,florist_shop,R,0.3979,NR,3.0000
259,7,115,82.3924,-70.3904,WI,4,3,CAMERA,dining_room,R,1.3379,NR,3.0000
260,7,116,94.4578,-82.4547,WO,4,4,TYPEWRITER,fountain,R,0.5580,NR,3.0000
261,7,117,106.5239,-94.5221,WO,4,3,WOLF,highway,R,0.8122,NR,3.0000
262,7,118,118.5882,-106.5860,WI,4,3,PENNY,dentists_office,R,1.0830,NR,3.0000
263,7,119,130.6532,-118.6515,WI,2,2,TIGER,stable,R,0.9128,NR,3.0000
264,7,120,142.7179,-130.7164,WO,2,2,CHICKEN,phone_booth,R,1.6135,NR,3.0000
265,7,121,154.7826,-142.7808,WO,4,4,PIE,manufactured_home,R,0.7131,NR,3.0000
266,7,122,166.8485,-154.8472,WI,4,4,MOON,theater,NR,999.0000,NR,3.0000
267,7,123,178.9134,-166.9112,WO,2,2,OYSTER,plaza,R,1.3155,NR,3.0000
268,7,124,190.9792,-178.9779,WO,2,2,ROPE,marsh,R,1.3532,R,5.1476
269,7,125,203.0444,-191.0434,WO,4,3,SHEEP,forest_path,R,1.0982,NR,3.0000
270,7,126,215.1088,-203.1074,WI,4,4,CAMERA,dining_room,R,1.3457,NR,3.0000
271,7,127,227.1742,-215.1730,WI,4,3,SHOVEL,badminton_court,R,1.4064,NR,3.0000
272,7,128,239.2389,-227.2367,WI,2,2,MANURE,music_studio,R,1.1334,NR,3.0000
273,7,129,251.3043,-239.3028,WO,4,3,WRENCH,ice_shelf,NR,999.0000,R,3.2338
274,7,130,263.3689,-251.3669,WI,2,2,VINE,bar,R,2.1977,NR,3.0000
275,7,131,275.4341,-263.4324,WO,4,4,SHEEP,forest_path,R,0.5681,NR,3.0000
276,7,132,287.4996,-275.4975,WI,2,2,NIGHTGOWN,office,R,0.8786,NR,3.0000
277,7,133,299.5648,-287.5634,WO,4,3,EMPEROR,moat,NR,999.0000,R,3.6231
278,7,134,311.6296,-299.6279,WI,4,3,CAGE,bakery,R,0.6281,NR,3.0000
279,7,135,323.6949,-311.6941,WI,4,4,PENNY,dentists_office,R,0.9804,NR,3.0000
280,7,136,335.7590,-323.7571,WO,4,4,EMPEROR,moat,R,0.7460,NR,3.0000
281,7,137,347.8247,-335.8238,WO,2,2,SNOW,islet,R,0.4992,NR,3.0000
282,7,138,359.8890,-347.8878,WI,2,2,FAN,banquet_hall,R,0.4562,NR,3.0000
283,7,139,371.9533,-359.9513,WO,2,2,CROWN,formal_garden,R,0.4894,NR,3.0000
284,7,140,384.0188,-372.0172,WI,4,4,CAGE,bakery,R,2.4458,NR,3.0000
285,7,141,396.0837,-384.0818,WI,4,4,SHOVEL,badminton_court,R,1.1832,NR,3.0000
286,7,142,408.1493,-396.1471,WI,2,2,OPIUM,bookstore,R,1.2751,NR,3.0000
287,7,143,420.2147,-408.2137,WO,4,3,TROPHY,construction_site,R,1.1037,NR,3.0000
288,7,144,432.2791,-420.2764,WI,2,2,CORAL,limousine_interior,R,1.2217,NR,3.0000
289,7,145,444.3451,-432.3442,WO,4,4,WRENCH,ice_shelf,R,0.8166,NR,3.0000
290,7,146,456.4093,-444.4073,WO,4,4,TROPHY,construction_site,R,1.8319,NR,3.0000
291,7,147,468.4754,-456.4733,WO,2,2,LAMP,power_plant,R,2.0060,NR,3.0000
292,7,148,480.5411,-468.5398,WI,4,4,PIANO,elevator,R,2.0622,NR,3.0000
293,7,149,492.6059,-480.6037,WO,2,2,BALLOON,balcony,R,0.7904,NR,3.0000
294,7,150,504.6722,-492.6708,WO,4,4,WOLF,highway,R,1.5350,NR,3.0000
295,8,127,10.0045,1.9974,WI,4,3,ANCHOR,library,R,1.3811,NR,3.0000
296,8,128,22.0709,-10.0699,WI,4,3,SWORD,beauty_salon,R,0.7293,NR,3.0000
297,8,129,34.1336,-22.1317,WI,4,3,DUST,squash_court,R,0.6984,NR,3.0000
298,8,130,46.1983,-34.1966,WO,4,3,BROOM,creek,R,0.5232,R,3.5263
299,8,131,58.2620,-46.2599,WO,2,2,SUBMARINE,crosswalk,R,0.4030,R,3.3666
300,8,132,70.3263,-58.3253,WI,4,4,SWORD,beauty_salon,R,0.4851,R,7.6961
301,8,133,82.3896,-70.3879,WO,4,3,ACCORDIAN,ice_floe,R,1.9242,NR,3.0000
302,8,134,94.4534,-82.4515,WO,2,2,CRAB,baseball_field,R,0.7742,NR,3.0000
303,8,135,106.5181,-94.5173,WI,4,3,HONEY,butchers_shop,R,0.7577,NR,3.0000
304,8,136,118.5811,-106.5800,WO,4,4,ACCORDIAN,ice_floe,R,1.1345,NR,3.0000
305,8,137,130.6444,-118.6411,WI,4,3,OTTER,jacuzzi,NR,999.0000,R,3.8519
306,8,138,142.7105,-130.7089,WI,2,2,TORNADO,parlor,R,1.5383,NR,3.0000
307,8,139,154.7743,-142.7731,WO,2,2,PENCIL,basketball_court,R,1.1548,NR,3.0000
308,8,140,166.8384,-154.8362,WO,4,3,RAKE,mountain,R,1.3333,NR,3.0000
309,8,141,178.9025,-166.9014,WO,4,4,RAKE,mountain,R,1.1317,NR,3.0000
310,8,142,190.9657,-178.9639,WI,4,4,OTTER,jacuzzi,R,1.0207,NR,3.0000
311,8,143,203.0301,-191.0294,WI,2,2,STOMACH,game_room,R,0.7852,NR,3.0000
312,8,144,215.0929,-203.0910,WO,4,3,BATON,field_cultivated,R,0.7501,NR,3.0000
313,8,145,227.1572,-215.1561,WI,4,3,TRIBE,baggage_claim,R,1.3624,NR,3.0000
314,8,146,239.2203,-227.2182,WO,4,3,JACKET,pond,R,0.5339,NR,3.0000
315,8,147,251.2841,-239.2824,WO,4,3,HAWK,lighthouse,R,0.4273,NR,3.0000
316,8,148,263.3472,-251.3445,WI,2,2,GOAT,diner,R,0.5999,NR,3.0000
317,8,149,275.4114,-263.4093,WO,4,3,SCOOTER,picnic_area,R,0.4486,NR,3.0000
318,8,150,287.4758,-275.4743,WI,4,4,ANCHOR,library,R,0.5024,NR,3.0000
319,8,151,299.5387,-287.5369,WI,4,4,DUST,squash_court,R,0.7803,NR,3.0000
320,8,152,311.6020,-299.6007,WO,4,4,SCOOTER,picnic_area,R,0.5446,NR,3.0000
321,8,153,323.6655,-311.6639,WI,4,4,HONEY,butchers_shop,R,0.3852,NR,3.0000
322,8,154,335.7288,-323.7280,WO,2,2,EASEL,herb_garden,R,0.4775,NR,3.0000
323,8,155,347.7918,-335.7901,WO,2,2,OMELET,hill,R,0.4893,NR,3.0000
324,8,156,359.8551,-347.8544,WI,2,2,KNIFE,archive,R,0.5742,NR,3.0000
325,8,157,371.9175,-359.9157,WI,2,2,SCROLL,movie_theater,R,0.5215,NR,3.0000
326,8,158,383.9807,-371.9792,WO,4,4,BROOM,creek,R,0.4901,NR,3.0000
327,8,159,396.0440,-384.0425,WO,2,2,GLOVE,bridge,R,0.7159,NR,3.0000
328,8,160,408.1076,-396.1056,WO,2,2,OLIVE,railroad_track,R,0.9064,NR,3.0000
329,8,161,420.1715,-408.1693,WI,2,2,HATCHET,swimming_pool,R,0.7195,NR,3.0000
330,8,162,432.2358,-420.2338,WI,4,3,TOWEL,catacomb,R,1.0774,NR,3.0000
331,8,163,444.3004,-432.2985,WO,4,4,BATON,field_cultivated,R,0.9518,NR,3.0000
332,8,164,456.3644,-444.3629,WI,4,4,TRIBE,baggage_claim,R,0.7236,NR,3.0000
333,8,165,468.4294,-456.4281,WO,4,4,JACKET,pond,R,0.7227,NR,3.0000
334,8,166,480.4926,-468.4907,WO,4,4,HAWK,lighthouse,R,0.4847,NR,3.0000
335,8,167,492.5565,-480.5552,WI,4,4,TOWEL,catacomb,R,0.5353,NR,3.0000
336,8,168,504.6203,-492.6195,WI,2,2,SEAL,ice_cream_parlor,R,0.6994,R,3.3676
337,9,145,10.0037,1.9980,WI,4,3,RIFLE,assembly_line,R,1.3191,NR,3.0000
338,9,146,22.0706,-10.0690,WO,4,3,WALLET,electrical_substation,R,0.7924,NR,3.0000
339,9,147,34.1349,-22.1335,WO,4,4,WALLET,electrical_substation,R,1.4185,NR,3.0000
340,9,148,46.1991,-34.1984,WO,4,3,BOWL,basilica,R,1.9030,NR,3.0000
341,9,149,58.2624,-46.2612,WI,2,2,ORANGE,ball_pit,R,0.7474,NR,3.0000
342,9,150,70.3255,-58.3245,WI,4,3,SCOTCH,bus_interior,R,0.8815,NR,3.0000
343,9,151,82.3889,-70.3867,WO,4,3,CHEESE,playground,R,0.4931,NR,3.0000
344,9,152,94.4530,-82.4511,WI,4,3,BONE,home_office,R,0.7796,NR,3.0000
345,9,153,106.5175,-94.5153,WI,4,3,THONG,fastfood_restaurant,R,0.6686,NR,3.0000
346,9,154,118.5815,-106.5796,WO,2,2,BARREL,boathouse,R,0.8355,NR,3.0000
347,9,155,130.6455,-118.6443,WO,4,3,RUDDER,lido_deck,R,0.6912,NR,3.0000
348,9,156,142.7091,-130.7073,WO,4,3,ROCKER,barn,R,0.7221,NR,3.0000
349,9,157,154.7725,-142.7714,WI,4,3,CARROT,engine_room,R,0.4053,NR,3.0000
350,9,158,166.8360,-154.8353,WO,2,2,SHOWER,motel,R,0.8810,NR,3.0000
351,9,159,178.8987,-166.8973,WI,2,2,MUSTARD,reception,R,1.2924,NR,3.0000
352,9,160,190.9621,-178.9608,WI,4,3,TURTLE,synagogue,R,0.6493,NR,3.0000
353,9,161,203.0260,-191.0243,WI,2,2,UMBRELLA,athletic_field,R,0.6156,NR,3.0000
354,9,162,215.0896,-203.0873,WO,4,4,ROCKER,barn,R,0.4965,NR,3.0000
355,9,163,227.1543,-215.1532,WI,4,3,TELEGRAPH,auto_factory,R,0.5927,NR,3.0000
356,9,164,239.2174,-227.2157,WI,4,4,SCOTCH,bus_interior,R,0.6615,NR,3.0000
357,9,165,251.2811,-239.2802,WO,4,3,BANANA,athletic_field,R,0.6553,NR,3.0000
358,9,166,263.3445,-251.3433,WO,4,4,BOWL,basilica,R,0.5529,NR,3.0000
359,9,167,275.4081,-263.4064,WO,2,2,FIRE,beach,R,0.8316,NR,3.0000
360,9,168,287.4723,-275.4715,WI,4,4,TURTLE,synagogue,R,0.5050,NR,3.0000
361,9,169,299.5351,-287.5330,WI,4,4,BONE,home_office,R,0.5748,NR,3.0000
362,9,170,311.5993,-299.5972,WO,4,4,BANANA,athletic_field,R,0.6282,NR,3.0000
363,9,171,323.6642,-311.6623,WI,4,4,CARROT,engine_room,R,0.8080,NR,3.0000
364,9,172,335.7285,-323.7275,WO,4,4,RUDDER,lido_deck,R,1.5383,NR,3.0000
365,9,173,347.7922,-335.7900,WO,4,3,SCAB,iceberg,R,0.7033,NR,3.0000
366,9,174,359.8568,-347.8554,WI,2,2,ELEPHANT,basement,R,0.6718,NR,3.0000
367,9,175,371.9206,-359.9189,WO,4,4,SCAB,iceberg,R,0.6950,NR,3.0000
368,9,176,383.9852,-371.9832,WI,4,4,THONG,fastfood_restaurant,R,2.1337,NR,3.0000
369,9,177,396.0494,-384.0481,WI,2,2,JUGGLER,hospital_room,R,0.7447,NR,3.0000
370,9,178,408.1137,-396.1114,WO,4,4,CHEESE,playground,R,0.4723,NR,3.0000
371,9,179,420.1785,-408.1775,WO,2,2,CRADLE,harbor,R,0.5607,NR,3.0000
372,9,180,432.2419,-420.2407,WI,4,4,RIFLE,assembly_line,R,0.6184,NR,3.0000
373,9,181,444.3060,-432.3052,WO,2,2,QUAIL,hangar,NR,999.0000,R,3.3001
374,9,182,456.3695,-444.3685,WI,2,2,BELL,playroom,R,1.3714,NR,3.0000
375,9,183,468.4330,-456.4308,WI,2,2,RACQUET,galley,R,2.0907,NR,3.0000
376,9,184,480.4972,-468.4952,WO,2,2,PUDDLE,river,NR,999.0000,R,3.6781
377,9,185,492.5613,-480.5600,WO,2,2,SAIL,chalet,R,0.9767,NR,3.0000
378,9,186,504.6253,-492.6231,WI,4,4,TELEGRAPH,auto_factory,R,0.5492,NR,3.0000
379,10,163,10.0036,1.9974,WI,2,2,ROCK,optician,R,0.6369,NR,3.0000
380,10,164,22.0741,-10.0724,WI,4,3,DOVE,living_room,R,0.5315,NR,3.0000
381,10,165,34.1427,-22.1409,WI,4,3,NEEDLE,candy_store,R,0.9040,NR,3.0000
382,10,166,46.2111,-34.2091,WO,4,3,BROWNIE,corral,R,0.5745,NR,3.0000
383,10,167,58.2801,-46.2788,WO,4,3,ORCHID,mausoleum,R,0.9535,NR,3.0000
384,10,168,70.3476,-58.3464,WI,2,2,CANE,closet,R,0.5058,NR,3.0000
385,10,169,82.4159,-70.4144,WI,2,2,SHRIMP,gymnasium,R,1.2955,R,11.1893
386,10,170,94.4835,-82.4813,WO,4,3,ROSARY,mountain_snowy,R,1.4719,NR,3.0000
387,10,171,106.5520,-94.5501,WI,4,3,DIAMOND,music_store,R,0.6735,NR,3.0000
388,10,172,118.6204,-106.6184,WI,4,3,HOOK,cockpit,R,0.6375,NR,3.0000
389,10,173,130.6884,-118.6867,WO,2,2,LANTERN,pagoda,R,0.3631,NR,3.0000
390,10,174,142.7568,-130.7560,WO,2,2,POSTER,castle,R,1.2945,R,8.3741
391,10,175,154.8237,-142.8222,WO,4,3,ARMOR,badlands,R,0.5509,NR,3.0000
392,10,176,166.8913,-154.8891,WI,4,4,HOOK,cockpit,R,1.2653,NR,3.0000
393,10,177,178.9599,-166.9585,WO,4,3,BAYONET,lock_chamber,R,0.5930,NR,3.0000
394,10,178,191.0273,-179.0258,WI,4,3,TOAST,control_room,R,0.9866,NR,3.0000
395,10,179,203.0953,-191.0944,WO,2,2,KEG,rock_arch,R,0.5566,R,3.5031
396,10,180,215.1622,-203.1609,WI,4,3,BOAT,bedroom,R,0.5807,NR,3.0000
397,10,181,227.2296,-215.2272,WO,4,3,BOOT,ruin,R,0.5278,NR,3.0000
398,10,182,239.2986,-227.2969,WO,4,4,ARMOR,badlands,R,0.7475,NR,3.0000
399,10,183,251.3665,-239.3653,WO,4,4,ORCHID,mausoleum,R,0.4467,R,3.8738
400,10,184,263.4343,-251.4324,WI,2,2,FOX,laundromat,R,0.5628,NR,3.0000
401,10,185,275.5023,-263.5015,WO,2,2,HARPOON,bullring,R,0.4553,NR,3.0000
402,10,186,287.5694,-275.5672,WI,2,2,PANTS,escalator,R,0.4264,NR,3.0000
403,10,187,299.6384,-287.6374,WO,2,2,YACHT,hot_spring,R,0.6569,NR,3.0000
404,10,188,311.7054,-299.7037,WI,2,2,ASPARAGUS,bazaar,R,0.7384,NR,3.0000
405,10,189,323.7738,-311.7720,WO,4,4,BROWNIE,corral,R,1.3184,NR,3.0000
406,10,190,335.8418,-323.8400,WI,4,3,MEDICINE,dorm_room,R,0.4490,NR,3.0000
407,10,191,347.9098,-335.9074,WI,4,4,DOVE,living_room,R,0.5799,NR,3.0000
408,10,192,359.9788,-347.9779,WO,4,4,BOOT,ruin,R,0.8171,R,5.5004
409,10,193,372.0458,-360.0447,WI,4,4,TOAST,control_room,R,0.7169,NR,3.0000
410,10,194,384.1137,-372.1129,WO,2,2,VODKA,dock,R,0.8755,NR,3.0000
411,10,195,396.1808,-384.1788,WI,4,4,BOAT,bedroom,R,1.7981,NR,3.0000
412,10,196,408.2490,-396.2467,WO,4,4,BAYONET,lock_chamber,R,1.1200,NR,3.0000
413,10,197,420.3179,-408.3162,WI,4,4,NEEDLE,candy_store,R,0.7845,NR,3.0000
414,10,198,432.3859,-420.3842,WO,4,4,ROSARY,mountain_snowy,R,1.1867,NR,3.0000
415,10,199,444.4543,-432.4530,WI,4,4,DIAMOND,music_store,R,1.0719,NR,3.0000
416,10,200,456.5218,-444.5209,WI,4,4,MEDICINE,dorm_room,R,0.7992,NR,3.0000
417,10,201,468.5889,-456.5871,WI,2,2,MAP,cloister,R,0.8016,R,11.4458
418,10,202,480.6578,-468.6562,WO,4,3,BABY,arch,R,2.3055,NR,3.0000
419,10,203,492.7257,-480.7235,WO,2,2,SARDINE,cliff,R,0.5848,NR,3.0000
420,10,204,504.7947,-492.7931,WO,4,4,BABY,arch,R,0.9270,NR,3.0000
421,11,181,10.0041,1.9972,WI,4,3,APPLE,biology_laboratory,R,0.5371,NR,3.0000
422,11,182,22.0705,-10.0686,WI,2,2,BASKET,kitchenette,R,2.2240,NR,3.0000
423,11,183,34.1355,-22.1342,WI,4,3,ICICLE,shopping_mall,R,0.3727,NR,3.0000
424,11,184,46.1996,-34.1983,WO,4,3,CHOCOLATE,ocean,R,0.6659,NR,3.0000
425,11,185,58.2633,-46.2603,WI,4,3,LION,lecture_room,R,1.6999,NR,3.0000
426,11,186,70.3287,-58.3275,WI,4,3,WAND,toyshop,R,0.8533,NR,3.0000
427,11,187,82.3924,-70.3915,WI,4,4,APPLE,biology_laboratory,R,1.2390,R,7.6357
428,11,188,94.4563,-82.4555,WO,4,3,DRUM,house,R,0.4285,NR,3.0000
429,11,189,106.5196,-94.5174,WO,2,2,QUARTER,oil_refinery,R,0.5472,NR,3.0000
430,11,190,118.5849,-106.5840,WI,4,3,CAMEL,ballroom,R,0.6840,NR,3.0000
431,11,191,130.6491,-118.6475,WI,2,2,CLARINET,restaurant,R,0.6675,NR,3.0000
432,11,192,142.7132,-130.7117,WO,2,2,POTATO,rope_bridge,R,0.5770,NR,3.0000
433,11,193,154.7778,-142.7768,WI,2,2,SLIPPER,ice_skating_rink,R,2.9378,NR,3.0000
434,11,194,166.8413,-154.8394,WO,4,3,HELMET,dam,R,0.6406,NR,3.0000
435,11,195,178.9057,-166.9042,WO,4,3,NAPKIN,fishpond,R,0.5671,R,3.6899
436,11,196,190.9703,-178.9692,WI,4,3,MEDAL,drugstore,R,0.5830,NR,3.0000
437,11,197,203.0341,-191.0323,WO,4,3,LIGHTNING,gazebo,R,0.6414,NR,3.0000
438,11,198,215.0996,-203.0976,WI,4,4,CAMEL,ballroom,R,0.8275,NR,3.0000
439,11,199,227.1641,-215.1623,WO,4,3,DOUGHNUT,cottage_garden,R,0.6054,NR,3.0000
440,11,200,239.2285,-227.2271,WO,2,2,SPATULA,oilrig,R,0.9346,NR,3.0000
441,11,201,251.2928,-239.2918,WI,4,4,LION,lecture_room,NR,999.0000,R,9.4662
442,11,202,263.3566,-251.3552,WI,4,4,WAND,toyshop,R,1.2850,NR,3.0000
443,11,203,275.4210,-263.4191,WI,2,2,PASTE,garage,R,0.6354,NR,3.0000
444,11,204,287.4853,-275.4836,WO,4,3,WITCH,rice_paddy,R,0.4101,NR,3.0000
445,11,205,299.5496,-287.5476,WI,4,4,MEDAL,drugstore,R,0.3901,NR,3.0000
446,11,206,311.6149,-299.6131,WO,4,4,WITCH,rice_paddy,R,0.4986,R,3.4375
447,11,207,323.6795,-311.6775,WO,2,2,GLOBE,hayfield,R,0.5330,NR,3.0000
448,11,208,335.7449,-323.7439,WI,4,3,TABLE,museum,R,0.7057,NR,3.0000
449,11,209,347.8090,-335.8077,WO,4,4,NAPKIN,fishpond,R,0.4507,NR,3.0000
450,11,210,359.8733,-347.8720,WO,2,2,MUSSEL,butte,R,0.5554,NR,3.0000
451,11,211,371.9380,-359.9365,WO,4,4,LIGHTNING,gazebo,R,0.3516,NR,3.0000
452,11,212,384.0028,-372.0008,WI,4,4,ICICLE,shopping_mall,R,0.4047,NR,3.0000
453,11,213,396.0685,-384.0652,WI,2,2,FIDDLE,lobby,R,0.4010,NR,3.0000
454,11,214,408.1347,-396.1330,WO,4,4,DRUM,house,R,0.4077,NR,3.0000
455,11,215,420.1998,-408.1986,WO,4,4,DOUGHNUT,cottage_garden,R,0.4049,NR,3.0000
456,11,216,432.2643,-420.2622,WI,2,2,FROG,nursery,R,0.3306,NR,3.0000
457,11,217,444.3291,-432.3281,WO,4,4,HELMET,dam,R,0.3504,NR,3.0000
458,11,218,456.3938,-444.3917,WO,2,2,QUILT,cemetery,R,0.7406,NR,3.0000
459,11,219,468.4587,-456.4577,WI,2,2,CANARY,volleyball_court,R,2.7204,R,9.0926
460,11,220,480.5228,-468.5220,WI,4,4,TABLE,museum,R,0.3896,R,3.4736
461,11,221,492.5864,-480.5847,WO,4,4,CHOCOLATE,ocean,R,0.3955,NR,3.0000
462,11,222,504.6510,-492.6494,WO,2,2,DESK,canyon,R,0.4652,R,3.3723
463,12,199,10.0029,1.9994,WO,4,3,PLUG,patio,R,0.3828,NR,3.0000
464,12,200,22.0730,-10.0712,WO,2,2,TOBACCO,kasbah,R,2.6687,R,9.9420
465,12,201,34.1401,-22.1386,WO,4,3,CANNON,fire_escape,R,0.7846,R,11.6514
466,12,202,46.2073,-34.2057,WI,4,3,WINE,bistro,R,0.5749,R,6.1766
467,12,203,58.2743,-46.2725,WO,2,2,FENCE,bayou,R,2.3802,R,6.0214
468,12,204,70.3417,-58.3409,WI,4,3,RICE,shoe_shop,R,0.4399,R,3.0914
469,12,205,82.4084,-70.4069,WO,4,3,PYTHON,nuclear_power_plant,R,0.4061,R,3.4967
470,12,206,94.4755,-82.4741,WI,2,2,SUNBURN,sauna,R,0.4359,R,3.4455
471,12,207,106.5430,-94.5420,WO,4,3,KILT,bamboo_forest,R,2.5676,R,3.4508
472,12,208,118.6096,-106.6083,WI,4,3,BANDIT,pulpit,R,0.9094,NR,3.0000
473,12,209,130.6764,-118.6747,WI,4,3,RABBIT,throne_room,R,2.3205,NR,3.0000
474,12,210,142.7442,-130.7433,WI,4,4,RICE,shoe_shop,R,2.8445,R,3.1656
475,12,211,154.8106,-142.8097,WO,4,3,MONKEY,landing_deck,R,0.3460,R,7.1584
476,12,212,166.8775,-154.8763,WO,4,4,PLUG,patio,R,0.3776,NR,3.0000
477,12,213,178.9441,-166.9432,WI,2,2,BLANKET,art_gallery,R,0.4987,R,7.2128
478,12,214,191.0106,-179.0092,WO,4,4,MONKEY,landing_deck,R,0.5105,NR,3.0000
479,12,215,203.0777,-191.0749,WO,4,3,LIME,amusement_park,R,0.5666,R,8.5767
480,12,216,215.1459,-203.1440,WO,2,2,WORM,igloo,R,0.3713,NR,3.0000
481,12,217,227.2138,-215.2126,WI,4,3,SEAWEED,pantry,R,2.7289,R,8.6503
482,12,218,239.2806,-227.2786,WO,2,2,FORK,orchard,R,1.6986,NR,3.0000
483,12,219,251.3479,-239.3472,WI,2,2,DAISY,car_interior,R,0.7614,NR,3.0000
484,12,220,263.4146,-251.4131,WI,4,3,TULIP,cathedral,R,0.5737,R,3.5911
485,12,221,275.4815,-263.4804,WI,4,4,BANDIT,pulpit,R,0.5756,R,5.1612
486,12,222,287.5487,-275.5472,WO,4,4,KILT,bamboo_forest,R,1.2634,NR,3.0000
487,12,223,299.6158,-287.6128,WI,2,2,CUCUMBER,cafeteria,R,0.6209,R,7.3337
488,12,224,311.6845,-299.6825,WI,4,4,SEAWEED,pantry,R,0.5310,NR,3.0000
489,12,225,323.7525,-311.7518,WI,4,3,ENVELOPE,childs_room,R,0.5742,NR,3.0000
490,12,226,335.8187,-323.8172,WO,4,3,BENCH,campsite,R,0.6012,NR,3.0000
491,12,227,347.8865,-335.8854,WI,4,4,WINE,bistro,R,0.4536,NR,3.0000
492,12,228,359.9534,-347.9516,WO,4,4,LIME,amusement_park,R,0.5687,NR,3.0000
493,12,229,372.0213,-360.0191,WI,2,2,ZIPPER,operating_room,R,0.5844,R,3.2356
494,12,230,384.0900,-372.0884,WI,2,2,BUTTER,natural_history_museum,R,0.7320,R,3.5363
495,12,231,396.1575,-384.1563,WO,2,2,STOOL,park,R,0.5464,R,3.3575
496,12,232,408.2250,-396.2235,WO,2,2,NOODLE,boat_deck,R,0.6114,R,3.2942
497,12,233,420.2925,-408.2906,WO,4,4,CANNON,fire_escape,R,0.6149,NR,3.0000
498,12,234,432.3602,-420.3585,WI,4,4,ENVELOPE,childs_room,R,0.4063,NR,3.0000
499,12,235,444.4286,-432.4274,WO,4,4,PYTHON,nuclear_power_plant,R,0.3493,R,10.5638
500,12,236,456.4960,-444.4951,WI,4,4,TULIP,cathedral,R,0.4366,R,3.3035
501,12,237,468.5636,-456.5625,WI,2,2,KALE,kindergarden_classroom,R,0.5042,NR,3.0000
502,12,238,480.6308,-468.6281,WO,4,4,BENCH,campsite,R,0.6968,R,3.4436
503,12,239,492.6995,-480.6987,WO,2,2,ANT,inn,NR,999.0000,NR,3.0000
504,12,240,504.7666,-492.7656,WI,4,4,RABBIT,throne_room,R,0.5584,NR,3.0000
