index,run,trial,onset,duration,cond,subcond,resp,acc,respRT,ISIresp,ISIacc,ISIrespRT
1,1,1,12.0023,1.4982,place,indoor,NR,0,999.0000,NR,0,999.0000
2,1,2,13.5008,1.4999,place,outdoor,indoor,0,0.0736,outdoor,1,0.2281
3,1,3,15.0009,1.4999,place,outdoor,outdoor,1,0.4685,NR,0,999.0000
4,1,4,16.5010,1.5001,place,outdoor,NR,0,999.0000,outdoor,1,0.0957
5,1,5,18.0013,1.4989,place,indoor,NR,0,999.0000,indoor,1,0.0251
6,1,6,19.5005,1.5007,place,indoor,NR,0,999.0000,indoor,1,0.1028
7,1,7,21.0014,1.4987,place,outdoor,NR,0,999.0000,outdoor,1,0.3342
8,1,8,22.5003,1.5008,place,indoor,NR,0,999.0000,NR,0,999.0000
9,1,9,24.0014,1.4996,place,indoor,NR,0,999.0000,indoor,1,0.0406
10,1,10,25.5012,1.4992,place,outdoor,NR,0,999.0000,NR,0,999.0000
11,1,11,27.0154,10.4854,rest,rest,rest,1,999.0000,NR,1,0.0000
12,1,12,37.5011,1.4992,object,manmade,NR,0,999.0000,NR,0,999.0000
13,1,13,39.0006,1.5011,object,natural,NR,0,999.0000,natural,1,0.1216
14,1,14,40.5020,1.4988,object,manmade,NR,0,999.0000,manmade,1,0.0222
15,1,15,42.0011,1.5003,object,natural,natural,1,0.4734,NR,0,999.0000
16,1,16,43.5016,1.4989,object,manmade,NR,0,999.0000,manmade,1,0.0314
17,1,17,45.0007,1.5001,object,manmade,NR,0,999.0000,natural,0,0.0129
18,1,18,46.5011,1.5002,object,natural,NR,0,999.0000,natural,1,0.0450
19,1,19,48.0015,1.4992,object,natural,natural,1,0.4799,NR,0,999.0000
20,1,20,49.5009,1.4998,object,manmade,NR,0,999.0000,manmade,1,0.0206
21,1,21,51.0009,1.5000,object,natural,NR,0,999.0000,NR,0,999.0000
22,1,22,52.5155,10.4854,rest,rest,rest,1,999.0000,NR,1,0.0000
23,1,23,63.0012,1.5000,face,female,NR,0,999.0000,female,1,0.2565
24,1,24,64.5015,1.4998,face,male,NR,0,999.0000,male,1,0.0479
25,1,25,66.0017,1.4985,face,male,male,1,0.4228,NR,0,999.0000
26,1,26,67.5004,1.5002,face,female,female,1,0.4594,NR,0,999.0000
27,1,27,69.0008,1.4995,face,male,male,1,0.4713,NR,0,999.0000
28,1,28,70.5006,1.5006,face,female,NR,0,999.0000,female,1,0.0185
29,1,29,72.0014,1.4995,face,male,NR,0,999.0000,NR,0,999.0000
30,1,30,73.5011,1.4998,face,female,female,1,0.4531,NR,0,999.0000
31,1,31,75.0011,1.5003,face,male,male,1,0.4206,NR,0,999.0000
32,1,32,76.5017,1.4992,face,female,female,1,0.4213,NR,0,999.0000
33,1,33,78.0161,10.4850,rest,rest,rest,1,999.0000,NR,1,0.0000
34,1,34,88.5013,1.5007,place,outdoor,NR,0,999.0000,outdoor,1,0.0046
35,1,35,90.0023,1.4993,place,outdoor,NR,0,999.0000,outdoor,1,0.0336
36,1,36,91.5019,1.4993,place,indoor,outdoor,0,0.4672,indoor,1,0.1513
37,1,37,93.0015,1.4995,place,outdoor,outdoor,1,0.4024,NR,0,999.0000
38,1,38,94.5012,1.4999,place,outdoor,NR,0,999.0000,outdoor,1,0.3934
39,1,39,96.0013,1.4995,place,indoor,NR,0,999.0000,indoor,1,0.1031
40,1,40,97.5011,1.4993,place,outdoor,NR,0,999.0000,outdoor,1,0.0521
41,1,41,99.0006,1.5006,place,indoor,NR,0,999.0000,indoor,1,0.3299
42,1,42,100.5015,1.4990,place,indoor,NR,0,999.0000,indoor,1,0.1377
43,1,43,102.0007,1.4994,place,indoor,outdoor,0,0.3731,indoor,1,0.6552
44,1,44,103.5167,10.4846,rest,rest,rest,1,999.0000,NR,1,0.0000
45,1,45,114.0015,1.4996,object,manmade,NR,0,999.0000,manmade,1,0.0531
46,1,46,115.5014,1.4990,object,natural,NR,0,999.0000,natural,1,0.0655
47,1,47,117.0008,1.4998,object,natural,NR,0,999.0000,natural,1,0.2296
48,1,48,118.5008,1.4994,object,manmade,NR,0,999.0000,manmade,1,0.0330
49,1,49,120.0005,1.5008,object,natural,natural,1,0.4704,NR,0,999.0000
50,1,50,121.5015,1.4990,object,natural,natural,1,0.4504,NR,0,999.0000
51,1,51,123.0007,1.4995,object,natural,natural,1,0.3864,NR,0,999.0000
52,1,52,124.5005,1.4998,object,manmade,manmade,1,0.3663,NR,0,999.0000
53,1,53,126.0005,1.5003,object,manmade,NR,0,999.0000,manmade,1,0.0560
54,1,54,127.5010,1.4992,object,manmade,manmade,1,0.4499,NR,0,999.0000
55,1,55,129.0174,10.4830,rest,rest,rest,1,999.0000,NR,1,0.0000
56,1,56,139.5006,1.4997,place,outdoor,NR,0,999.0000,outdoor,1,0.5783
57,1,57,141.0007,1.5010,place,outdoor,NR,0,999.0000,outdoor,1,0.1476
58,1,58,142.5019,1.4983,place,indoor,NR,0,999.0000,indoor,1,0.1057
59,1,59,144.0004,1.5003,place,outdoor,NR,0,999.0000,outdoor,1,0.0665
60,1,60,145.5010,1.4999,place,indoor,NR,0,999.0000,NR,0,999.0000
61,1,61,147.0011,1.4998,place,indoor,outdoor,0,0.3886,indoor,1,0.4850
62,1,62,148.5012,1.4991,place,indoor,NR,0,999.0000,indoor,1,0.1618
63,1,63,150.0005,1.5008,place,outdoor,NR,0,999.0000,NR,0,999.0000
64,1,64,151.5016,1.4998,place,indoor,NR,0,999.0000,NR,0,999.0000
65,1,65,153.0016,1.4985,place,outdoor,NR,0,999.0000,outdoor,1,0.0980
66,1,66,154.5179,10.4830,rest,rest,rest,1,999.0000,NR,1,0.0000
67,1,67,165.0011,1.4997,face,male,NR,0,999.0000,female,0,0.2717
68,1,68,166.5011,1.4994,face,female,female,1,0.4546,NR,0,999.0000
69,1,69,168.0009,1.4994,face,female,female,1,0.3945,NR,0,999.0000
70,1,70,169.5005,1.5008,face,male,male,1,0.3831,NR,0,999.0000
71,1,71,171.0015,1.4991,face,female,female,1,0.4567,NR,0,999.0000
72,1,72,172.5008,1.4996,face,male,NR,0,999.0000,NR,0,999.0000
73,1,73,174.0006,1.4999,face,female,female,1,0.4055,NR,0,999.0000
74,1,74,175.5008,1.5005,face,female,NR,0,999.0000,female,1,0.2091
75,1,75,177.0015,1.4992,face,male,male,1,0.4532,NR,0,999.0000
76,1,76,178.5010,1.5002,face,male,male,1,0.4529,NR,0,999.0000
77,1,77,180.0186,10.4820,rest,rest,rest,1,999.0000,NR,1,0.0000
78,1,78,190.5009,1.5008,face,male,NR,0,999.0000,male,1,0.0277
79,1,79,192.0020,1.4997,face,female,female,1,0.3374,NR,0,999.0000
80,1,80,193.5020,1.4986,face,female,female,1,0.3751,NR,0,999.0000
81,1,81,195.0009,1.5000,face,male,male,1,0.4024,NR,0,999.0000
82,1,82,196.5011,1.4990,face,male,NR,0,999.0000,NR,0,999.0000
83,1,83,198.0004,1.4998,face,female,female,1,0.4349,NR,0,999.0000
84,1,84,199.5004,1.5002,face,male,NR,0,999.0000,male,1,0.0157
85,1,85,201.0008,1.5003,face,female,NR,0,999.0000,NR,0,999.0000
86,1,86,202.5014,1.4994,face,female,female,1,0.4319,NR,0,999.0000
87,1,87,204.0011,1.4992,face,male,NR,0,999.0000,male,1,0.0825
88,1,88,205.5192,10.4812,rest,rest,rest,1,999.0000,NR,1,0.0000
89,1,89,216.0007,1.5013,object,natural,NR,0,999.0000,natural,1,0.5134
90,1,90,217.5022,1.4999,object,manmade,NR,0,999.0000,manmade,1,0.3579
91,1,91,219.0024,1.4985,object,manmade,NR,0,999.0000,manmade,1,0.1540
92,1,92,220.5011,1.4996,object,manmade,NR,0,999.0000,manmade,1,0.6087
93,1,93,222.0009,1.4997,object,natural,natural,1,0.4156,NR,0,999.0000
94,1,94,223.5008,1.4997,object,natural,natural,1,0.4453,NR,0,999.0000
95,1,95,225.0007,1.4995,object,manmade,NR,0,999.0000,manmade,1,0.0171
96,1,96,226.5004,1.5008,object,manmade,NR,0,999.0000,manmade,1,0.3473
97,1,97,228.0015,1.4990,object,natural,natural,1,0.4477,NR,0,999.0000
98,1,98,229.5008,1.5004,object,natural,NR,0,999.0000,natural,1,0.0068
99,1,99,231.0198,10.4806,rest,rest,rest,1,999.0000,NR,1,0.0000
100,1,100,241.5007,1.4998,place,outdoor,NR,0,999.0000,outdoor,1,0.1116
101,1,101,243.0008,1.4993,place,outdoor,outdoor,1,0.4279,NR,0,999.0000
102,1,102,244.5004,1.4998,place,indoor,indoor,1,0.3544,NR,0,999.0000
103,1,103,246.0004,1.4997,place,outdoor,outdoor,1,0.3248,NR,0,999.0000
104,1,104,247.5004,1.5008,place,indoor,NR,0,999.0000,indoor,1,0.3402
105,1,105,249.0014,1.4997,place,indoor,NR,0,999.0000,indoor,1,0.0710
106,1,106,250.5013,1.4999,place,indoor,NR,0,999.0000,indoor,1,0.0114
107,1,107,252.0015,1.4992,place,outdoor,NR,0,999.0000,outdoor,1,0.0194
108,1,108,253.5009,1.5004,place,indoor,NR,0,999.0000,indoor,1,0.2551
109,1,109,255.0016,1.4998,place,outdoor,NR,0,999.0000,outdoor,1,0.0806
110,1,110,256.5204,10.4799,rest,rest,rest,1,999.0000,NR,1,0.0000
111,1,111,267.0005,1.5001,face,female,NR,0,999.0000,female,1,0.2182
112,1,112,268.5009,1.5009,face,male,male,1,0.3946,NR,0,999.0000
113,1,113,270.0022,1.4990,face,male,NR,0,999.0000,male,1,0.0688
114,1,114,271.5014,1.4999,face,male,NR,0,999.0000,male,1,0.0117
115,1,115,273.0015,1.4996,face,female,female,1,0.4590,NR,0,999.0000
116,1,116,274.5013,1.4992,face,male,male,1,0.4364,NR,0,999.0000
117,1,117,276.0008,1.4998,face,female,female,1,0.3192,NR,0,999.0000
118,1,118,277.5008,1.4997,face,female,NR,0,999.0000,female,1,0.0434
119,1,119,279.0007,1.5007,face,male,male,1,0.3752,NR,0,999.0000
120,1,120,280.5016,1.4987,face,female,female,1,0.4128,NR,0,999.0000
121,1,121,282.0040,10.4964,rest,rest,rest,1,999.0000,NR,1,0.0000
122,1,122,292.5007,1.5006,object,natural,NR,0,999.0000,natural,1,0.1483
123,1,123,294.0016,1.4989,object,natural,natural,1,0.4396,NR,0,999.0000
124,1,124,295.5008,1.4999,object,manmade,manmade,1,0.4547,NR,0,999.0000
125,1,125,297.0009,1.4993,object,natural,natural,1,0.3728,NR,0,999.0000
126,1,126,298.5004,1.4999,object,natural,natural,1,0.4451,NR,0,999.0000
127,1,127,300.0006,1.5007,object,natural,NR,0,999.0000,natural,1,0.0063
128,1,128,301.5016,1.4997,object,manmade,natural,0,0.4183,manmade,1,0.1941
129,1,129,303.0015,1.4999,object,manmade,NR,0,999.0000,manmade,1,0.0441
130,1,130,304.5016,1.4985,object,manmade,NR,0,999.0000,manmade,1,0.0117
131,1,131,306.0003,1.5010,object,manmade,manmade,1,0.3515,NR,0,999.0000
132,1,132,307.5046,10.4960,rest,rest,rest,1,999.0000,NR,1,0.0000
133,2,1,12.0021,1.4987,object,manmade,NR,0,999.0000,manmade,1,0.0955
134,2,2,13.5011,1.4998,object,natural,natural,1,0.4855,NR,0,999.0000
135,2,3,15.0011,1.4997,object,manmade,manmade,1,0.4664,NR,0,999.0000
136,2,4,16.5010,1.4992,object,natural,natural,1,0.3712,NR,0,999.0000
137,2,5,18.0004,1.5001,object,natural,natural,1,0.4004,NR,0,999.0000
138,2,6,19.5007,1.5006,object,natural,natural,1,0.3687,NR,0,999.0000
139,2,7,21.0015,1.4990,object,manmade,manmade,1,0.4758,NR,0,999.0000
140,2,8,22.5008,1.4996,object,natural,natural,1,0.3379,NR,0,999.0000
141,2,9,24.0006,1.4995,object,manmade,NR,0,999.0000,manmade,1,0.0966
142,2,10,25.5004,1.5005,object,manmade,NR,0,999.0000,manmade,1,0.1244
143,2,11,27.0121,10.4892,rest,rest,rest,1,999.0000,NR,1,0.0000
144,2,12,37.5016,1.4986,place,indoor,NR,0,999.0000,indoor,1,0.2251
145,2,13,39.0005,1.4999,place,outdoor,outdoor,1,0.4651,NR,0,999.0000
146,2,14,40.5007,1.5005,place,outdoor,NR,0,999.0000,outdoor,1,0.0462
147,2,15,42.0015,1.4987,place,outdoor,NR,0,999.0000,indoor,0,0.0813
148,2,16,43.5004,1.5004,place,indoor,NR,0,999.0000,NR,0,999.0000
149,2,17,45.0011,1.4990,place,outdoor,NR,0,999.0000,outdoor,1,0.0725
150,2,18,46.5003,1.5010,place,outdoor,outdoor,1,0.4200,NR,0,999.0000
151,2,19,48.0015,1.4992,place,indoor,NR,0,999.0000,NR,0,999.0000
152,2,20,49.5010,1.5003,place,indoor,NR,0,999.0000,indoor,1,0.1104
153,2,21,51.0016,1.4988,place,indoor,NR,0,999.0000,indoor,1,0.0130
154,2,22,52.5128,10.4886,rest,rest,rest,1,999.0000,NR,1,0.0000
155,2,23,63.0016,1.4987,object,natural,NR,0,999.0000,natural,1,0.0735
156,2,24,64.5006,1.5008,object,natural,natural,1,0.3942,NR,0,999.0000
157,2,25,66.0017,1.4996,object,manmade,NR,0,999.0000,natural,0,0.1958
158,2,26,67.5015,1.4994,object,natural,natural,1,0.4423,NR,0,999.0000
159,2,27,69.0011,1.5001,object,manmade,manmade,1,0.4474,NR,0,999.0000
160,2,28,70.5014,1.4997,object,manmade,manmade,1,0.4762,NR,0,999.0000
161,2,29,72.0014,1.4995,object,natural,natural,1,0.4734,NR,0,999.0000
162,2,30,73.5011,1.4995,object,natural,natural,1,0.4216,NR,0,999.0000
163,2,31,75.0008,1.5004,object,manmade,NR,0,999.0000,manmade,1,0.1012
164,2,32,76.5015,1.4998,object,manmade,manmade,1,0.4102,NR,0,999.0000
165,2,33,78.0133,10.4879,rest,rest,rest,1,999.0000,NR,1,0.0000
166,2,34,88.5015,1.4999,face,male,NR,0,999.0000,male,1,0.0380
167,2,35,90.0017,1.4990,face,female,female,1,0.3804,NR,0,999.0000
168,2,36,91.5010,1.4995,face,male,male,1,0.4144,NR,0,999.0000
169,2,37,93.0007,1.4999,face,male,male,1,0.4154,NR,0,999.0000
170,2,38,94.5008,1.4997,face,female,female,1,0.4380,NR,0,999.0000
171,2,39,96.0008,1.5006,face,female,female,1,0.3636,NR,0,999.0000
172,2,40,97.5015,1.4992,face,female,female,1,0.4084,NR,0,999.0000
173,2,41,99.0010,1.5000,face,male,male,1,0.4584,NR,0,999.0000
174,2,42,100.5012,1.4991,face,female,NR,0,999.0000,female,1,0.1074
175,2,43,102.0005,1.5004,face,male,NR,0,999.0000,male,1,0.0118
176,2,44,103.5140,10.4866,rest,rest,rest,1,999.0000,NR,1,0.0000
177,2,45,114.0008,1.5008,face,male,NR,0,999.0000,male,1,0.2132
178,2,46,115.5020,1.4997,face,male,NR,0,999.0000,male,1,0.0168
179,2,47,117.0020,1.4989,face,female,female,1,0.4516,NR,0,999.0000
180,2,48,118.5010,1.4995,face,male,male,1,0.4764,NR,0,999.0000
181,2,49,120.0008,1.5002,face,female,female,1,0.4424,NR,0,999.0000
182,2,50,121.5012,1.4991,face,male,male,1,0.4743,NR,0,999.0000
183,2,51,123.0005,1.5003,face,female,female,1,0.4787,NR,0,999.0000
184,2,52,124.5010,1.4990,face,female,NR,0,999.0000,NR,0,999.0000
185,2,53,126.0003,1.5010,face,male,NR,0,999.0000,male,1,0.0825
186,2,54,127.5015,1.4993,face,female,NR,0,999.0000,NR,0,999.0000
187,2,55,129.0146,10.4865,rest,rest,rest,1,999.0000,NR,1,0.0000
188,2,56,139.5014,1.4992,place,outdoor,NR,0,999.0000,outdoor,1,0.2121
189,2,57,141.0009,1.4998,place,indoor,NR,0,999.0000,indoor,1,0.0416
190,2,58,142.5011,1.4992,place,indoor,NR,0,999.0000,indoor,1,0.0353
191,2,59,144.0005,1.5001,place,outdoor,NR,0,999.0000,NR,0,999.0000
192,2,60,145.5008,1.5001,place,indoor,NR,0,999.0000,indoor,1,0.0478
193,2,61,147.0011,1.4999,place,outdoor,outdoor,1,0.3927,NR,0,999.0000
194,2,62,148.5012,1.4994,place,indoor,NR,0,999.0000,indoor,1,0.0237
195,2,63,150.0009,1.4998,place,outdoor,outdoor,1,0.4152,NR,0,999.0000
196,2,64,151.5010,1.4991,place,outdoor,outdoor,1,0.4389,NR,0,999.0000
197,2,65,153.0003,1.5001,place,indoor,indoor,1,0.4672,NR,0,999.0000
198,2,66,154.5152,10.4853,rest,rest,rest,1,999.0000,NR,1,0.0000
199,2,67,165.0007,1.5000,place,outdoor,NR,0,999.0000,outdoor,1,0.1229
200,2,68,166.5010,1.5001,place,indoor,NR,0,999.0000,NR,0,999.0000
201,2,69,168.0015,1.4996,place,indoor,NR,0,999.0000,indoor,1,0.0051
202,2,70,169.5013,1.4998,place,outdoor,NR,0,999.0000,outdoor,1,0.0137
203,2,71,171.0014,1.4995,place,indoor,NR,0,999.0000,indoor,1,0.3015
204,2,72,172.5012,1.5000,place,indoor,NR,0,999.0000,indoor,1,0.1383
205,2,73,174.0014,1.4999,place,indoor,NR,0,999.0000,indoor,1,0.1018
206,2,74,175.5015,1.4997,place,outdoor,outdoor,1,0.3669,NR,0,999.0000
207,2,75,177.0014,1.4988,place,outdoor,indoor,0,0.4637,outdoor,1,0.2773
208,2,76,178.5005,1.4996,place,outdoor,outdoor,1,0.4681,NR,0,999.0000
209,2,77,180.0158,10.4844,rest,rest,rest,1,999.0000,NR,1,0.0000
210,2,78,190.5005,1.5013,object,manmade,NR,0,999.0000,manmade,1,0.1351
211,2,79,192.0022,1.4990,object,natural,natural,1,0.4489,NR,0,999.0000
212,2,80,193.5015,1.4997,object,natural,natural,1,0.4157,NR,0,999.0000
213,2,81,195.0013,1.4993,object,manmade,manmade,1,0.4028,NR,0,999.0000
214,2,82,196.5008,1.4995,object,natural,natural,1,0.4144,NR,0,999.0000
215,2,83,198.0005,1.5002,object,natural,NR,0,999.0000,natural,1,0.0073
216,2,84,199.5010,1.5000,object,natural,NR,0,999.0000,natural,1,0.1225
217,2,85,201.0013,1.4998,object,manmade,manmade,1,0.3503,NR,0,999.0000
218,2,86,202.5013,1.5001,object,manmade,manmade,1,0.4772,NR,0,999.0000
219,2,87,204.0016,1.4988,object,manmade,NR,0,999.0000,manmade,1,0.1235
220,2,88,205.5164,10.4838,rest,rest,rest,1,999.0000,NR,1,0.0000
221,2,89,216.0005,1.5003,face,male,NR,0,999.0000,male,1,0.0606
222,2,90,217.5011,1.5008,face,female,female,1,0.4084,NR,0,999.0000
223,2,91,219.0022,1.4985,face,female,female,1,0.3812,NR,0,999.0000
224,2,92,220.5008,1.4996,face,male,male,1,0.4549,NR,0,999.0000
225,2,93,222.0006,1.4998,face,male,male,1,0.4166,NR,0,999.0000
226,2,94,223.5007,1.5006,face,female,female,1,0.4644,NR,0,999.0000
227,2,95,225.0015,1.4987,face,female,NR,0,999.0000,female,1,0.2697
228,2,96,226.5004,1.5003,face,male,male,1,0.4719,NR,0,999.0000
229,2,97,228.0009,1.5001,face,male,NR,0,999.0000,female,0,0.0477
230,2,98,229.5012,1.4997,face,female,NR,0,999.0000,NR,0,999.0000
231,2,99,231.0170,10.4842,rest,rest,rest,1,999.0000,NR,1,0.0000
232,2,100,241.5015,1.5006,face,male,NR,0,999.0000,male,1,0.1330
233,2,101,243.0024,1.4988,face,female,NR,0,999.0000,female,1,0.1527
234,2,102,244.5015,1.4992,face,male,NR,0,999.0000,male,1,0.0752
235,2,103,246.0009,1.5002,face,female,NR,0,999.0000,female,1,0.0512
236,2,104,247.5014,1.4993,face,male,NR,0,999.0000,male,1,0.0138
237,2,105,249.0009,1.4995,face,female,female,1,0.4810,NR,0,999.0000
238,2,106,250.5006,1.5005,face,female,female,1,0.4623,NR,0,999.0000
239,2,107,252.0014,1.4991,face,male,male,1,0.4693,NR,0,999.0000
240,2,108,253.5007,1.5007,face,female,NR,0,999.0000,NR,0,999.0000
241,2,109,255.0016,1.4987,face,male,male,1,0.4760,NR,0,999.0000
242,2,110,256.5177,10.4825,rest,rest,rest,1,999.0000,NR,1,0.0000
243,2,111,267.0004,1.5003,object,natural,NR,0,999.0000,natural,1,0.0920
244,2,112,268.5011,1.5005,object,natural,natural,1,0.4618,NR,0,999.0000
245,2,113,270.0019,1.4992,object,manmade,NR,0,999.0000,manmade,1,0.0129
246,2,114,271.5013,1.4989,object,natural,NR,0,999.0000,natural,1,0.0587
247,2,115,273.0004,1.5001,object,natural,NR,0,999.0000,natural,1,0.0458
248,2,116,274.5008,1.5003,object,manmade,NR,0,999.0000,manmade,1,0.1827
249,2,117,276.0013,1.4999,object,manmade,NR,0,999.0000,manmade,1,0.1406
250,2,118,277.5014,1.4999,object,natural,natural,1,0.4494,NR,0,999.0000
251,2,119,279.0016,1.4988,object,manmade,NR,0,999.0000,manmade,1,0.0957
252,2,120,280.5006,1.5008,object,manmade,NR,0,999.0000,manmade,1,0.2425
253,2,121,282.0183,10.4826,rest,rest,rest,1,999.0000,NR,1,0.0000
254,2,122,292.5012,1.5008,place,indoor,NR,0,999.0000,indoor,1,0.5206
255,2,123,294.0022,1.4982,place,indoor,NR,0,999.0000,indoor,1,0.1346
256,2,124,295.5007,1.4997,place,indoor,NR,0,999.0000,indoor,1,0.1044
257,2,125,297.0007,1.4995,place,outdoor,outdoor,1,0.4024,NR,0,999.0000
258,2,126,298.5003,1.5003,place,outdoor,NR,0,999.0000,outdoor,1,0.1440
259,2,127,300.0009,1.4995,place,indoor,NR,0,999.0000,indoor,1,0.0684
260,2,128,301.5007,1.5002,place,outdoor,NR,0,999.0000,outdoor,1,0.2237
261,2,129,303.0011,1.4991,place,outdoor,outdoor,1,0.4499,NR,0,999.0000
262,2,130,304.5005,1.5004,place,indoor,NR,0,999.0000,indoor,1,0.1361
263,2,131,306.0011,1.4995,place,outdoor,NR,0,999.0000,outdoor,1,0.0080
264,2,132,307.5189,10.4818,rest,rest,rest,1,999.0000,NR,1,0.0000
