index,run,trial,onset,duration,cond,subcond,resp,acc,respRT,ISIresp,ISIacc,ISIrespRT
1,1,1,12.0030,1.4992,object,natural,NR,0,999.0000,NR,0,999.0000
2,1,2,13.9381,1.0631,object,natural,NR,0,999.0000,NR,0,999.0000
3,1,3,15.0306,1.4696,object,natural,natural,1,0.3503,NR,0,999.0000
4,1,4,16.5319,1.4690,object,natural,NR,0,999.0000,natural,1,0.0711
5,1,5,18.0327,1.4682,object,manmade,manmade,1,0.4345,NR,0,999.0000
6,1,6,19.5333,1.4673,object,manmade,NR,0,999.0000,manmade,1,0.0482
7,1,7,21.0337,1.4675,object,natural,NR,0,999.0000,natural,1,0.2936
8,1,8,22.5349,1.4662,object,manmade,NR,0,999.0000,manmade,1,0.0135
9,1,9,24.0355,1.4658,object,manmade,NR,0,999.0000,manmade,1,0.1044
10,1,10,25.5366,1.4648,object,manmade,NR,0,999.0000,natural,0,0.1224
11,1,11,27.0464,10.4540,rest,rest,rest,1,999.0000,NR,1,0.0000
12,1,12,37.5514,1.4499,object,manmade,NR,0,999.0000,manmade,1,0.1603
13,1,13,39.0529,1.4473,object,manmade,manmade,1,0.4273,NR,0,999.0000
14,1,14,40.5373,1.4636,object,natural,manmade,0,0.2065,NR,0,999.0000
15,1,15,42.0380,1.4633,object,natural,manmade,0,0.3939,NR,0,999.0000
16,1,16,43.5399,1.4613,object,natural,natural,1,0.4165,NR,0,999.0000
17,1,17,45.0402,1.4611,object,natural,natural,1,0.3600,NR,0,999.0000
18,1,18,46.5409,1.4599,object,manmade,NR,0,999.0000,manmade,1,0.0743
19,1,19,48.0407,1.4594,object,manmade,natural,0,0.4149,NR,0,999.0000
20,1,20,49.5407,1.4606,object,natural,natural,1,0.4360,NR,0,999.0000
21,1,21,51.0434,1.4570,object,manmade,NR,0,999.0000,manmade,1,0.0091
22,1,22,52.5464,10.4539,rest,rest,rest,1,999.0000,NR,1,0.0000
23,1,23,63.0603,1.4405,face,female,NR,0,999.0000,female,1,0.0253
24,1,24,64.5620,1.4397,face,female,female,1,0.4001,NR,0,999.0000
25,1,25,66.0452,1.4561,face,male,male,1,0.3749,NR,0,999.0000
26,1,26,67.5454,1.4557,face,female,female,1,0.3669,NR,0,999.0000
27,1,27,69.0454,1.4552,face,male,male,1,0.4327,NR,0,999.0000
28,1,28,70.5454,1.4560,face,male,NR,0,999.0000,NR,0,999.0000
29,1,29,72.0471,1.4535,face,female,female,1,0.4158,NR,0,999.0000
30,1,30,73.5469,1.4541,face,male,male,1,0.4072,NR,0,999.0000
31,1,31,75.0479,1.4533,face,female,male,0,0.3436,female,1,0.0667
32,1,32,76.5498,1.4508,face,male,male,1,0.4299,NR,0,999.0000
33,1,33,78.0635,10.4370,rest,rest,rest,1,999.0000,NR,1,0.0000
34,1,34,88.5705,1.4297,object,natural,NR,0,999.0000,manmade,0,0.4701
35,1,35,90.0709,1.4306,object,natural,NR,0,999.0000,manmade,0,0.1162
36,1,36,91.5517,1.4492,object,manmade,NR,0,999.0000,manmade,1,0.0312
37,1,37,93.0511,1.4495,object,manmade,manmade,1,0.4039,NR,0,999.0000
38,1,38,94.5519,1.4490,object,natural,natural,1,0.3439,NR,0,999.0000
39,1,39,96.0523,1.4489,object,natural,NR,0,999.0000,NR,0,999.0000
40,1,40,97.5540,1.4463,object,manmade,NR,0,999.0000,manmade,1,0.0112
41,1,41,99.0528,1.4479,object,manmade,NR,0,999.0000,manmade,1,0.1539
42,1,42,100.5548,1.4455,object,manmade,NR,0,999.0000,NR,0,999.0000
43,1,43,102.0545,1.4465,object,natural,natural,1,0.3187,NR,0,999.0000
44,1,44,103.5640,10.4370,rest,rest,rest,1,999.0000,NR,1,0.0000
45,1,45,114.0812,1.4207,place,outdoor,NR,0,999.0000,indoor,0,0.3616
46,1,46,115.5819,1.4184,place,outdoor,NR,0,999.0000,indoor,0,0.1887
47,1,47,117.0577,1.4431,place,indoor,NR,0,999.0000,indoor,1,0.1293
48,1,48,118.5576,1.4433,place,indoor,NR,0,999.0000,indoor,1,0.0404
49,1,49,120.0585,1.4425,place,indoor,NR,0,999.0000,indoor,1,0.0882
50,1,50,121.5591,1.4417,place,outdoor,NR,0,999.0000,outdoor,1,0.0712
51,1,51,123.0598,1.4403,place,indoor,NR,0,999.0000,indoor,1,0.0375
52,1,52,124.5600,1.4404,place,outdoor,outdoor,1,0.3822,NR,0,999.0000
53,1,53,126.0603,1.4406,place,outdoor,indoor,0,0.3647,NR,0,999.0000
54,1,54,127.5619,1.4384,place,indoor,NR,0,999.0000,indoor,1,0.0355
55,1,55,129.0813,10.4195,rest,rest,rest,1,999.0000,NR,1,0.0000
56,1,56,139.5904,1.4100,face,female,NR,0,999.0000,female,1,0.1573
57,1,57,141.0902,1.4107,face,female,female,1,0.3819,NR,0,999.0000
58,1,58,142.5643,1.4361,face,female,female,1,0.4170,NR,0,999.0000
59,1,59,144.0637,1.4366,face,female,female,1,0.3908,NR,0,999.0000
60,1,60,145.5639,1.4370,face,female,male,0,0.4123,female,1,0.3123
61,1,61,147.0658,1.4353,face,male,male,1,0.4037,NR,0,999.0000
62,1,62,148.5671,1.4343,face,male,NR,0,999.0000,NR,0,999.0000
63,1,63,150.0672,1.4337,face,male,male,1,0.2672,NR,0,999.0000
64,1,64,151.5683,1.4325,face,male,male,1,0.3137,NR,0,999.0000
65,1,65,153.0675,1.4332,face,male,male,1,0.2867,NR,0,999.0000
66,1,66,154.5824,10.4184,rest,rest,rest,1,999.0000,NR,1,0.0000
67,1,67,165.0994,1.4027,place,indoor,NR,0,999.0000,indoor,1,0.3549
68,1,68,166.6022,1.3996,place,outdoor,NR,0,999.0000,outdoor,1,0.0934
69,1,69,168.0722,1.4279,place,indoor,NR,0,999.0000,indoor,1,0.1420
70,1,70,169.5697,1.4305,place,indoor,NR,0,999.0000,indoor,1,0.1180
71,1,71,171.0709,1.4293,place,outdoor,NR,0,999.0000,NR,0,999.0000
72,1,72,172.5716,1.4291,place,outdoor,NR,0,999.0000,indoor,0,0.0164
73,1,73,174.0724,1.4284,place,indoor,NR,0,999.0000,indoor,1,0.0370
74,1,74,175.5731,1.4279,place,outdoor,outdoor,1,0.3645,NR,0,999.0000
75,1,75,177.0742,1.4262,place,outdoor,NR,0,999.0000,outdoor,1,0.0218
76,1,76,178.5743,1.4260,place,indoor,NR,0,999.0000,indoor,1,0.0675
77,1,77,180.0826,10.4179,rest,rest,rest,1,999.0000,NR,1,0.0000
78,1,78,190.6086,1.3917,face,female,NR,0,999.0000,female,1,0.2145
79,1,79,192.1092,1.3923,face,male,NR,0,999.0000,male,1,0.0797
80,1,80,193.5778,1.4233,face,female,NR,0,999.0000,male,0,0.0137
81,1,81,195.0774,1.4227,face,male,male,1,0.3222,NR,0,999.0000
82,1,82,196.5774,1.4238,face,female,NR,0,999.0000,female,1,0.0133
83,1,83,198.0794,1.4216,face,female,female,1,0.3881,NR,0,999.0000
84,1,84,199.5792,1.4219,face,male,male,1,0.4002,NR,0,999.0000
85,1,85,201.0803,1.4201,face,male,male,1,0.3481,NR,0,999.0000
86,1,86,202.5795,1.4212,face,female,NR,0,999.0000,female,1,0.0051
87,1,87,204.0812,1.4197,face,male,NR,0,999.0000,male,1,0.0434
88,1,88,205.5999,10.4007,rest,rest,rest,1,999.0000,NR,1,0.0000
89,1,89,216.1183,1.3837,place,outdoor,NR,0,999.0000,outdoor,1,0.2232
90,1,90,217.6203,1.3820,place,indoor,NR,0,999.0000,indoor,1,0.1655
91,1,91,219.1215,1.3798,place,outdoor,NR,0,999.0000,indoor,0,0.1451
92,1,92,220.5841,1.4170,place,outdoor,NR,0,999.0000,indoor,0,0.1748
93,1,93,222.0847,1.4165,place,outdoor,NR,0,999.0000,outdoor,1,0.0300
94,1,94,223.5853,1.4158,place,indoor,NR,0,999.0000,indoor,1,0.1643
95,1,95,225.0866,1.4146,place,indoor,NR,0,999.0000,indoor,1,0.0965
96,1,96,226.5873,1.4136,place,indoor,NR,0,999.0000,indoor,1,0.1268
97,1,97,228.0874,1.4127,place,indoor,NR,0,999.0000,indoor,1,0.0466
98,1,98,229.5873,1.4141,place,outdoor,NR,0,999.0000,outdoor,1,0.0387
99,1,99,231.1003,10.4006,rest,rest,rest,1,999.0000,NR,1,0.0000
100,1,100,241.6280,1.3723,place,outdoor,NR,0,999.0000,outdoor,1,0.5981
101,1,101,243.1280,1.3726,place,indoor,NR,0,999.0000,indoor,1,0.0719
102,1,102,244.6293,1.3721,place,outdoor,NR,0,999.0000,indoor,0,0.0182
103,1,103,246.0914,1.4100,place,outdoor,NR,0,999.0000,outdoor,1,0.0628
104,1,104,247.5915,1.4087,place,indoor,NR,0,999.0000,indoor,1,0.0256
105,1,105,249.0908,1.4093,place,outdoor,NR,0,999.0000,outdoor,1,0.0522
106,1,106,250.5920,1.4084,place,indoor,NR,0,999.0000,indoor,1,0.1048
107,1,107,252.0929,1.4079,place,indoor,NR,0,999.0000,indoor,1,0.1261
108,1,108,253.5933,1.4078,place,indoor,NR,0,999.0000,outdoor,0,0.0963
109,1,109,255.0942,1.4068,place,outdoor,NR,0,999.0000,outdoor,1,0.0865
110,1,110,256.6015,10.3992,rest,rest,rest,1,999.0000,NR,1,0.0000
111,1,111,267.1372,1.3647,object,manmade,NR,0,999.0000,manmade,1,0.3769
112,1,112,268.6393,1.3621,object,manmade,NR,0,999.0000,manmade,1,0.0706
113,1,113,270.1401,1.3608,object,natural,NR,0,999.0000,manmade,0,0.0121
114,1,114,271.5970,1.4036,object,natural,NR,0,999.0000,natural,1,0.1370
115,1,115,273.0975,1.4037,object,natural,NR,0,999.0000,natural,1,0.0200
116,1,116,274.5980,1.4032,object,natural,NR,0,999.0000,natural,1,0.0083
117,1,117,276.0999,1.4011,object,manmade,NR,0,999.0000,manmade,1,0.0162
118,1,118,277.5994,1.4016,object,manmade,NR,0,999.0000,NR,0,999.0000
119,1,119,279.1006,1.3996,object,natural,NR,0,999.0000,manmade,0,0.0263
120,1,120,280.6002,1.4007,object,manmade,NR,0,999.0000,manmade,1,0.1100
121,1,121,282.1183,10.3825,rest,rest,rest,1,999.0000,NR,1,0.0000
122,1,122,292.6475,1.3544,face,female,NR,0,999.0000,female,1,0.2591
123,1,123,294.1514,1.3489,face,male,NR,0,999.0000,male,1,0.0857
124,1,124,295.6479,1.3524,face,male,NR,0,999.0000,male,1,0.4127
125,1,125,297.1029,1.3984,face,male,female,0,0.3524,male,1,0.1608
126,1,126,298.6039,1.3972,face,male,NR,0,999.0000,male,1,0.0204
127,1,127,300.1044,1.3962,face,male,NR,0,999.0000,NR,0,999.0000
128,1,128,301.6043,1.3961,face,female,NR,0,999.0000,female,1,0.0303
129,1,129,303.1056,1.3946,face,female,female,1,0.3816,NR,0,999.0000
130,1,130,304.6057,1.3954,face,female,NR,0,999.0000,female,1,0.0357
131,1,131,306.1080,1.3926,face,female,NR,0,999.0000,NR,0,999.0000
132,1,132,307.6188,10.3822,rest,rest,rest,1,999.0000,NR,1,0.0000
133,2,1,12.0036,1.4975,place,indoor,NR,0,999.0000,indoor,1,0.1540
134,2,2,13.6665,1.3347,place,indoor,NR,0,999.0000,indoor,1,0.5653
135,2,3,15.1102,1.3910,place,indoor,NR,0,999.0000,outdoor,0,0.1285
136,2,4,16.6108,1.3897,place,outdoor,NR,0,999.0000,outdoor,1,0.0501
137,2,5,18.1098,1.3911,place,indoor,NR,0,999.0000,indoor,1,0.0547
138,2,6,19.6114,1.3897,place,outdoor,NR,0,999.0000,outdoor,1,0.1637
139,2,7,21.1116,1.3889,place,outdoor,NR,0,999.0000,outdoor,1,0.0589
140,2,8,22.6127,1.3884,place,indoor,NR,0,999.0000,indoor,1,0.0563
141,2,9,24.1135,1.3870,place,outdoor,NR,0,999.0000,indoor,0,0.0920
142,2,10,25.6138,1.3867,place,outdoor,NR,0,999.0000,indoor,0,0.0452
143,2,11,27.1301,10.3703,rest,rest,rest,1,999.0000,NR,1,0.0000
144,2,12,37.6665,1.3338,object,manmade,NR,0,999.0000,manmade,1,0.3063
145,2,13,39.1677,1.3335,object,natural,NR,0,999.0000,natural,1,0.1735
146,2,14,40.6693,1.3308,object,natural,NR,0,999.0000,natural,1,0.1600
147,2,15,42.1157,1.3850,object,natural,NR,0,999.0000,natural,1,0.0928
148,2,16,43.6163,1.3852,object,manmade,NR,0,999.0000,manmade,1,0.2993
149,2,17,45.1181,1.3820,object,natural,NR,0,999.0000,natural,1,0.0668
150,2,18,46.6173,1.3830,object,manmade,NR,0,999.0000,manmade,1,0.1004
151,2,19,48.1182,1.3823,object,manmade,NR,0,999.0000,manmade,1,0.1051
152,2,20,49.6183,1.3828,object,manmade,NR,0,999.0000,manmade,1,0.2462
153,2,21,51.1197,1.3814,object,natural,NR,0,999.0000,natural,1,0.2875
154,2,22,52.6305,10.3711,rest,rest,rest,1,999.0000,NR,1,0.0000
155,2,23,63.1777,1.3238,place,indoor,NR,0,999.0000,indoor,1,0.3467
156,2,24,64.6780,1.3236,place,indoor,NR,0,999.0000,indoor,1,0.2504
157,2,25,66.1790,1.3224,place,outdoor,NR,0,999.0000,outdoor,1,0.1694
158,2,26,67.6230,1.3776,place,indoor,NR,0,999.0000,indoor,1,0.1368
159,2,27,69.1228,1.3785,place,outdoor,NR,0,999.0000,outdoor,1,0.1177
160,2,28,70.6247,1.3756,place,outdoor,NR,0,999.0000,outdoor,1,0.1473
161,2,29,72.1239,1.3774,place,outdoor,NR,0,999.0000,outdoor,1,0.1131
162,2,30,73.6251,1.3761,place,indoor,NR,0,999.0000,indoor,1,0.0850
163,2,31,75.1273,1.3731,place,indoor,NR,0,999.0000,indoor,1,0.1698
164,2,32,76.6271,1.3732,place,outdoor,NR,0,999.0000,outdoor,1,0.0464
165,2,33,78.1308,10.3699,rest,rest,rest,1,999.0000,NR,1,0.0000
166,2,34,88.6330,1.3681,object,manmade,NR,0,999.0000,manmade,1,0.1918
167,2,35,90.1344,1.3669,object,natural,NR,0,999.0000,natural,1,0.1737
168,2,36,91.6379,1.3628,object,manmade,NR,0,999.0000,manmade,1,0.0775
169,2,37,93.3386,1.1617,object,natural,NR,0,999.0000,natural,1,0.3078
170,2,38,94.6359,1.3651,object,natural,NR,0,999.0000,natural,1,0.2247
171,2,39,96.1349,1.3660,object,natural,NR,0,999.0000,natural,1,0.1111
172,2,40,97.6324,1.3687,object,manmade,NR,0,999.0000,manmade,1,0.1007
173,2,41,99.1320,1.3683,object,manmade,NR,0,999.0000,manmade,1,0.1556
174,2,42,100.6327,1.3680,object,natural,NR,0,999.0000,natural,1,0.1446
175,2,43,102.1345,1.3657,object,manmade,NR,0,999.0000,manmade,1,0.1102
176,2,44,103.6478,10.3524,rest,rest,rest,1,999.0000,NR,1,0.0000
177,2,45,114.1895,1.3113,face,female,NR,0,999.0000,female,1,0.1844
178,2,46,115.6414,1.3599,face,male,NR,0,999.0000,male,1,0.0377
179,2,47,117.1994,1.3015,face,female,NR,0,999.0000,female,1,0.1862
180,2,48,118.6356,1.3646,face,female,NR,0,999.0000,female,1,0.1723
181,2,49,120.1356,1.3649,face,female,NR,0,999.0000,female,1,0.2915
182,2,50,121.6366,1.3646,face,male,NR,0,999.0000,male,1,0.1332
183,2,51,123.1376,1.3629,face,male,NR,0,999.0000,male,1,0.0570
184,2,52,124.6387,1.3614,face,male,NR,0,999.0000,male,1,0.0353
185,2,53,126.1373,1.3629,face,male,NR,0,999.0000,male,1,0.1146
186,2,54,127.6385,1.3625,face,female,NR,0,999.0000,female,1,0.1961
187,2,55,129.1484,10.3526,rest,rest,rest,1,999.0000,NR,1,0.0000
188,2,56,139.7053,1.2963,place,indoor,NR,0,999.0000,indoor,1,0.4739
189,2,57,141.2069,1.2934,place,outdoor,NR,0,999.0000,outdoor,1,0.2763
190,2,58,142.7066,1.2939,place,indoor,NR,0,999.0000,indoor,1,0.2222
191,2,59,144.1411,1.3592,place,outdoor,NR,0,999.0000,outdoor,1,0.0888
192,2,60,145.6426,1.3575,place,outdoor,NR,0,999.0000,outdoor,1,0.1103
193,2,61,147.1424,1.3582,place,indoor,NR,0,999.0000,indoor,1,0.1184
194,2,62,148.6429,1.3585,place,indoor,NR,0,999.0000,indoor,1,0.0591
195,2,63,150.1456,1.3553,place,outdoor,NR,0,999.0000,outdoor,1,0.3478
196,2,64,151.6474,1.3535,place,indoor,NR,0,999.0000,indoor,1,0.0878
197,2,65,153.1458,1.3543,place,outdoor,NR,0,999.0000,outdoor,1,0.1135
198,2,66,154.6498,10.3506,rest,rest,rest,1,999.0000,NR,1,0.0000
199,2,67,165.2141,1.2864,object,manmade,NR,0,999.0000,manmade,1,0.3848
200,2,68,166.7150,1.2854,object,manmade,NR,0,999.0000,manmade,1,0.2533
201,2,69,168.2156,1.2857,object,manmade,NR,0,999.0000,natural,0,0.1908
202,2,70,169.6493,1.3521,object,natural,NR,0,999.0000,natural,1,0.1535
203,2,71,171.1488,1.3519,object,natural,NR,0,999.0000,natural,1,0.2545
204,2,72,172.6489,1.3524,object,natural,NR,0,999.0000,natural,1,0.1854
205,2,73,174.1501,1.3502,object,manmade,NR,0,999.0000,manmade,1,0.1894
206,2,74,175.6506,1.3496,object,manmade,NR,0,999.0000,manmade,1,0.1412
207,2,75,177.1512,1.3493,object,natural,NR,0,999.0000,natural,1,0.1112
208,2,76,178.6513,1.3493,object,natural,NR,0,999.0000,natural,1,0.1221
209,2,77,180.1669,10.3336,rest,rest,rest,1,999.0000,NR,1,0.0000
210,2,78,190.7237,1.2778,face,male,NR,0,999.0000,male,1,0.3499
211,2,79,192.2259,1.2755,face,male,NR,0,999.0000,male,1,0.2279
212,2,80,193.7263,1.2751,face,female,NR,0,999.0000,female,1,0.1450
213,2,81,195.1555,1.3449,face,male,NR,0,999.0000,male,1,0.0753
214,2,82,196.6548,1.3453,face,male,NR,0,999.0000,male,1,0.1133
215,2,83,198.1547,1.3462,face,female,NR,0,999.0000,male,0,0.1979
216,2,84,199.6559,1.3456,face,female,NR,0,999.0000,female,1,0.0478
217,2,85,201.1578,1.3424,face,male,NR,0,999.0000,male,1,0.1086
218,2,86,202.6574,1.3437,face,female,NR,0,999.0000,female,1,0.2157
219,2,87,204.1595,1.3416,face,female,NR,0,999.0000,female,1,0.1220
220,2,88,205.6675,10.3334,rest,rest,rest,1,999.0000,NR,1,0.0000
221,2,89,216.2335,1.2676,face,female,NR,0,999.0000,female,1,0.3005
222,2,90,217.7352,1.2657,face,female,NR,0,999.0000,female,1,0.1076
223,2,91,219.2357,1.2649,face,female,NR,0,999.0000,female,1,0.0934
224,2,92,220.6602,1.3399,face,male,NR,0,999.0000,male,1,0.1111
225,2,93,222.1612,1.3390,face,male,NR,0,999.0000,male,1,0.1313
226,2,94,223.6617,1.3393,face,male,NR,0,999.0000,male,1,0.0954
227,2,95,225.1626,1.3375,face,male,NR,0,999.0000,male,1,0.1248
228,2,96,226.6632,1.3374,face,male,NR,0,999.0000,male,1,0.1115
229,2,97,228.1642,1.3359,face,female,NR,0,999.0000,female,1,0.0438
230,2,98,229.6641,1.3373,face,female,NR,0,999.0000,NR,0,999.0000
231,2,99,231.1842,10.3165,rest,rest,rest,1,999.0000,NR,1,0.0000
232,2,100,241.7437,1.2575,object,manmade,NR,0,999.0000,manmade,1,0.4366
233,2,101,243.2449,1.2558,object,manmade,NR,0,999.0000,manmade,1,0.2602
234,2,102,244.7444,1.2561,object,manmade,NR,0,999.0000,natural,0,0.4613
235,2,103,246.1671,1.3334,object,manmade,NR,0,999.0000,natural,0,0.2085
236,2,104,247.6682,1.3328,object,manmade,NR,0,999.0000,manmade,1,0.2663
237,2,105,249.1693,1.3309,object,natural,NR,0,999.0000,natural,1,0.0563
238,2,106,250.6683,1.3330,object,natural,NR,0,999.0000,natural,1,0.0770
239,2,107,252.1696,1.3307,object,natural,NR,0,999.0000,natural,1,0.1867
240,2,108,253.6699,1.3305,object,natural,NR,0,999.0000,natural,1,0.0728
241,2,109,255.1698,1.3306,object,natural,NR,0,999.0000,natural,1,0.0551
242,2,110,256.6849,10.3156,rest,rest,rest,1,999.0000,NR,1,0.0000
243,2,111,267.2530,1.2482,place,outdoor,NR,0,999.0000,outdoor,1,0.3535
244,2,112,268.7540,1.2462,place,indoor,NR,0,999.0000,indoor,1,0.2062
245,2,113,270.2540,1.2465,place,indoor,NR,0,999.0000,indoor,1,0.1668
246,2,114,271.6746,1.3267,place,outdoor,NR,0,999.0000,outdoor,1,0.2463
247,2,115,273.1754,1.3254,place,outdoor,NR,0,999.0000,outdoor,1,0.5492
248,2,116,274.6761,1.3251,place,indoor,NR,0,999.0000,indoor,1,0.2062
249,2,117,276.1765,1.3239,place,outdoor,NR,0,999.0000,outdoor,1,0.3014
250,2,118,277.6762,1.3249,place,indoor,NR,0,999.0000,indoor,1,0.1996
251,2,119,279.1771,1.3230,place,indoor,NR,0,999.0000,indoor,1,0.2525
252,2,120,280.6771,1.3239,place,outdoor,NR,0,999.0000,outdoor,1,0.1269
253,2,121,282.1860,10.3141,rest,rest,rest,1,999.0000,NR,1,0.0000
254,2,122,292.7617,1.2403,face,female,NR,0,999.0000,female,1,0.4037
255,2,123,294.2640,1.2371,face,male,NR,0,999.0000,male,1,0.1889
256,2,124,295.7574,1.2436,face,male,NR,0,999.0000,male,1,0.1840
257,2,125,297.1804,1.3202,face,male,NR,0,999.0000,male,1,0.2373
258,2,126,298.6830,1.3174,face,male,NR,0,999.0000,male,1,0.0542
259,2,127,300.1803,1.3205,face,female,NR,0,999.0000,female,1,0.2950
260,2,128,301.6826,1.3183,face,female,NR,0,999.0000,female,1,0.2776
261,2,129,303.1830,1.3177,face,male,NR,0,999.0000,male,1,0.2290
262,2,130,304.6844,1.3163,face,female,NR,0,999.0000,female,1,0.2079
263,2,131,306.1833,1.3172,face,female,NR,0,999.0000,male,0,0.1724
264,2,132,307.7027,10.2980,rest,rest,rest,1,999.0000,NR,1,0.0000
