index,run,trial,onset,duration,cond,repType,repCount,word,pic,resp,respRT,ISIresp,ISIrespRT
1,1,1,10.0051,1.9979,WO,4,1,SHEEP,general_store,R,1.6131,NR,3.0000
2,1,2,22.0661,-10.0645,WO,4,1,TRAY,office_building,UR,1.5314,NR,3.0000
3,1,3,34.1215,-22.1196,WI,2,1,HONEY,pantry,R,1.2122,NR,3.0000
4,1,4,46.1783,-34.1762,WO,4,1,SQUIRREL,bamboo_forest,R,2.2762,NR,3.0000
5,1,5,58.2365,-46.2358,WO,2,1,BIBLE,river,NR,999.0000,UR,3.0428
6,1,6,70.2923,-58.2902,WI,4,1,SLIPPER,cockpit,UR,1.5977,NR,3.0000
7,1,7,82.3500,-70.3480,WI,4,1,SHOVEL,hospital_room,NR,999.0000,UR,3.1266
8,1,8,94.4072,-82.4054,WI,4,1,HAM,toyshop,UR,1.4815,NR,3.0000
9,1,9,106.4641,-94.4627,WO,4,2,TRAY,office_building,UR,2.0396,NR,3.0000
10,1,10,118.5211,-106.5196,WI,2,1,WOLF,garage,UR,1.5978,NR,3.0000
11,1,11,130.5777,-118.5761,WO,4,1,ACCORDIAN,cliff,UR,1.8010,NR,3.0000
12,1,12,142.6343,-130.6328,WI,4,1,GEESE,synagogue,UR,1.7524,NR,3.0000
13,1,13,154.6911,-142.6891,WO,4,1,NEST,ocean,R,1.7242,NR,3.0000
14,1,14,166.7483,-154.7471,WI,2,1,YACHT,brewery,UR,1.5787,NR,3.0000
15,1,15,178.8053,-166.8035,WI,2,1,CLARINET,stable,NR,999.0000,UR,3.3158
16,1,16,190.8622,-178.8615,WI,2,1,ANCHOR,riding_arena,UR,1.2619,NR,3.0000
17,1,17,202.9197,-190.9184,WO,4,2,ACCORDIAN,cliff,UR,2.1552,NR,3.0000
18,1,18,214.9764,-202.9752,WI,4,1,BASKET,ballroom,UR,1.6249,NR,3.0000
19,1,19,227.0327,-215.0309,WO,2,1,PENCIL,mausoleum,UR,1.5670,NR,3.0000
20,1,20,239.0897,-227.0882,WO,4,1,ASPARAGUS,canal,UR,1.6599,NR,3.0000
21,1,21,251.1466,-239.1446,WI,4,2,GEESE,synagogue,UR,1.9211,NR,3.0000
22,1,22,263.2046,-251.2035,WO,4,1,BROWNIE,greenhouse,R,2.9432,NR,3.0000
23,1,23,275.2611,-263.2599,WI,4,1,SHOWER,bus_interior,UR,1.9965,NR,3.0000
24,1,24,287.3183,-275.3165,WO,2,1,CANARY,nuclear_power_plant,NR,999.0000,UR,3.1514
25,1,25,299.3761,-287.3754,WO,4,2,ASPARAGUS,canal,UR,1.1125,NR,3.0000
26,1,26,311.4322,-299.4310,WI,2,1,RICE,sauna,NR,999.0000,UR,3.8338
27,1,27,323.4893,-311.4880,WO,4,2,NEST,ocean,UR,1.6771,NR,3.0000
28,1,28,335.5460,-323.5451,WI,4,2,SHOVEL,hospital_room,UR,1.6101,NR,3.0000
29,1,29,347.6023,-335.6006,WO,4,2,BROWNIE,greenhouse,R,1.1989,NR,3.0000
30,1,30,359.6599,-347.6577,WI,4,2,SHOWER,bus_interior,UR,1.9161,NR,3.0000
31,1,31,371.7174,-359.7158,WO,2,1,CANDLE,castle,UR,1.7796,NR,3.0000
32,1,32,383.7750,-371.7741,WI,4,2,HAM,toyshop,UR,1.4798,NR,3.0000
33,1,33,395.8320,-383.8304,WO,2,1,PUMPKIN,kasbah,UR,1.5252,NR,3.0000
34,1,34,407.8901,-395.8884,WI,4,2,BASKET,ballroom,NR,999.0000,UR,3.1425
35,1,35,419.9476,-407.9460,WI,2,1,SYRUP,bazaar,R,1.3577,NR,3.0000
36,1,36,432.0047,-420.0039,WO,2,1,CAMERA,balcony,UR,2.7725,NR,3.0000
37,1,37,444.0614,-432.0606,WO,4,2,SHEEP,general_store,UR,2.8342,NR,3.0000
38,1,38,456.1178,-444.1157,WO,4,2,SQUIRREL,bamboo_forest,R,1.2870,NR,3.0000
39,1,39,468.1761,-456.1750,WI,4,1,SHRIMP,elevator,UR,1.2869,NR,3.0000
40,1,40,480.2325,-468.2318,WI,4,2,SHRIMP,elevator,NR,999.0000,NR,3.0000
41,1,41,492.2887,-480.2878,WI,4,2,SLIPPER,cockpit,UR,1.7380,NR,3.0000
42,1,42,504.3458,-492.3442,WO,2,1,PEARL,lock_chamber,NR,999.0000,UR,3.1155
43,2,19,10.0018,1.9995,WO,4,1,SARDINE,inn,UR,2.1415,NR,3.0000
44,2,20,22.0598,-10.0589,WO,4,1,BOAT,beach,R,2.0864,NR,3.0000
45,2,21,34.1217,-22.1197,WI,2,1,POWDER,game_room,UR,2.4118,NR,3.0000
46,2,22,46.1789,-34.1771,WO,4,1,STOOL,field_cultivated,UR,2.0398,NR,3.0000
47,2,23,58.2360,-46.2345,WI,2,1,CRAB,courtroom,UR,1.9154,NR,3.0000
48,2,24,70.2932,-58.2899,WO,2,1,SHARK,rice_paddy,UR,1.7672,NR,3.0000
49,2,25,82.3517,-70.3500,WI,4,1,BALLOON,engine_room,UR,1.5034,R,11.5531
50,2,26,94.4092,-82.4084,WO,2,1,CROWN,creek,UR,1.4987,NR,3.0000
51,2,27,106.4656,-94.4644,WI,4,1,MAP,auto_factory,R,2.2952,NR,3.0000
52,2,28,118.5223,-106.5213,WO,4,1,UMBRELLA,electrical_substation,UR,1.9961,NR,3.0000
53,2,29,130.5795,-118.5784,WI,2,1,MEDICINE,escalator,UR,1.9909,NR,3.0000
54,2,30,142.6363,-130.6348,WO,4,2,BOAT,beach,R,1.3244,NR,3.0000
55,2,31,154.6938,-142.6920,WI,4,1,ARROW,gymnasium,NR,999.0000,R,3.2439
56,2,32,166.7511,-154.7502,WO,2,1,MITTEN,plaza,UR,1.6725,NR,3.0000
57,2,33,178.8075,-166.8067,WO,4,1,LAMB,driving_range,UR,1.8831,NR,3.0000
58,2,34,190.8642,-178.8631,WO,2,1,SOUP,hayfield,UR,1.4792,NR,3.0000
59,2,35,202.9209,-190.9191,WI,4,1,WHIP,ice_cream_parlor,R,1.9297,NR,3.0000
60,2,36,214.9786,-202.9777,WO,4,1,CRADLE,desert,UR,1.9200,NR,3.0000
61,2,37,227.0351,-215.0330,WI,4,2,BALLOON,engine_room,UR,1.5796,NR,3.0000
62,2,38,239.0927,-227.0907,WO,4,1,PIANO,beach,UR,1.1852,NR,3.0000
63,2,39,251.1507,-239.1485,WI,4,1,STAPLER,swimming_pool,UR,1.8178,NR,3.0000
64,2,40,263.2083,-251.2066,WI,4,2,STAPLER,swimming_pool,UR,1.7383,NR,3.0000
65,2,41,275.2664,-263.2643,WI,4,1,SCORPION,closet,UR,1.9801,NR,3.0000
66,2,42,287.3241,-275.3232,WO,2,1,DOVE,moat,UR,1.5407,NR,3.0000
67,2,43,299.3808,-287.3792,WO,4,2,STOOL,field_cultivated,UR,2.2242,NR,3.0000
68,2,44,311.4388,-299.4377,WO,4,2,UMBRELLA,electrical_substation,UR,2.2318,NR,3.0000
69,2,45,323.4959,-311.4944,WI,2,1,SOOT,parking_garage,UR,2.0688,NR,3.0000
70,2,46,335.5542,-323.5519,WI,4,1,BARREL,control_room,UR,1.4378,NR,3.0000
71,2,47,347.6125,-335.6101,WO,4,2,PIANO,beach,NR,999.0000,R,3.9378
72,2,48,359.6710,-347.6690,WI,2,1,SCREWDRIVER,music_studio,UR,2.5992,NR,3.0000
73,2,49,371.7292,-359.7274,WI,4,2,MAP,auto_factory,R,1.2725,NR,3.0000
74,2,50,383.7870,-371.7858,WI,4,2,ARROW,gymnasium,UR,2.7227,NR,3.0000
75,2,51,395.8446,-383.8439,WO,4,2,LAMB,driving_range,UR,1.8492,NR,3.0000
76,2,52,407.9014,-395.8992,WO,4,2,CRADLE,desert,UR,1.1169,NR,3.0000
77,2,53,419.9597,-407.9587,WI,4,2,SCORPION,closet,UR,2.7868,NR,3.0000
78,2,54,432.0171,-420.0151,WI,4,2,BARREL,control_room,UR,2.0227,NR,3.0000
79,2,55,444.0750,-432.0719,WO,2,1,GOAT,field_wild,NR,999.0000,UR,3.1298
80,2,56,456.1346,-444.1332,WI,2,1,NOODLE,television_studio,UR,1.6481,NR,3.0000
81,2,57,468.1918,-456.1910,WO,4,2,SARDINE,inn,UR,2.3923,NR,3.0000
82,2,58,480.2486,-468.2471,WI,2,1,CUCUMBER,tennis_court,UR,2.8373,NR,3.0000
83,2,59,492.3066,-480.3056,WO,2,1,POTATO,forest_path,UR,1.6906,NR,3.0000
84,2,60,504.3636,-492.3627,WI,4,2,WHIP,ice_cream_parlor,NR,999.0000,R,3.3068
85,3,37,10.0024,1.9987,WI,4,1,DRUM,cathedral,UR,2.6591,NR,3.0000
86,3,38,22.0634,-10.0621,WO,4,1,EMPEROR,badlands,UR,1.9281,NR,3.0000
87,3,39,34.1231,-22.1217,WO,2,1,CORAL,motel,UR,1.7440,NR,3.0000
88,3,40,46.1830,-34.1816,WO,4,1,BELL,house,NR,999.0000,R,3.3187
89,3,41,58.2427,-46.2401,WI,2,1,PASSPORT,florist_shop,NR,999.0000,UR,3.1973
90,3,42,70.3037,-58.3029,WO,4,2,EMPEROR,badlands,UR,1.2929,NR,3.0000
91,3,43,82.3632,-70.3613,WI,4,1,MANURE,classroom,UR,1.3620,NR,3.0000
92,3,44,94.4234,-82.4224,WO,2,1,TOAST,bayou,R,2.1652,NR,3.0000
93,3,45,106.4831,-94.4818,WO,2,1,CANDY,fire_station,R,2.1085,NR,3.0000
94,3,46,259.8237,-247.8215,WI,2,1,SALAD,living_room,NR,999.0000,UR,3.1392
95,3,47,271.8847,-259.8835,WO,2,1,QUAIL,oilrig,UR,2.1118,NR,3.0000
96,3,48,283.9451,-271.9441,WI,4,1,MOUSE,airplane_cabin,R,2.1771,NR,3.0000
97,3,49,296.0049,-284.0022,WI,4,1,FROG,jail_cell,R,2.4708,NR,3.0000
98,3,50,308.0663,-296.0642,WO,4,1,VINE,marsh,UR,1.8232,NR,3.0000
99,3,51,320.1265,-308.1254,WO,4,1,WAND,picnic_area,UR,2.3879,NR,3.0000
100,3,52,332.1858,-320.1838,WI,4,1,SOAP,kitchen,NR,999.0000,UR,3.1194
101,3,53,344.2466,-332.2452,WI,4,2,MOUSE,airplane_cabin,NR,999.0000,R,3.3819
102,3,54,356.3064,-344.3043,WI,2,1,PENNY,bookstore,R,2.0499,NR,3.0000
103,3,55,368.3669,-356.3657,WO,4,1,SCOTCH,highway,UR,2.1647,NR,3.0000
104,3,56,380.4271,-368.4253,WO,4,1,BLANKET,corral,R,2.1922,NR,3.0000
105,3,57,392.4866,-380.4845,WI,4,1,HOSE,home_office,R,2.3346,NR,3.0000
106,3,58,404.5475,-392.5467,WI,4,2,HOSE,home_office,R,1.4398,NR,3.0000
107,3,59,416.6067,-404.6045,WI,2,1,LAMP,art_gallery,R,1.9356,NR,3.0000
108,3,60,428.6674,-416.6660,WO,2,1,CLOAK,herb_garden,UR,2.1512,NR,3.0000
109,3,61,440.7276,-428.7257,WO,4,2,SCOTCH,highway,R,1.8432,NR,3.0000
110,3,62,452.7877,-440.7850,WI,4,2,DRUM,cathedral,UR,1.9955,NR,3.0000
111,3,63,464.8491,-452.8475,WO,2,1,ROCK,canyon,R,1.6822,NR,3.0000
112,3,64,476.9089,-464.9072,WI,2,1,PANTS,cubicle,R,2.1256,NR,3.0000
113,3,65,488.9685,-476.9663,WO,4,2,VINE,marsh,UR,2.8318,NR,3.0000
114,3,66,501.0294,-489.0274,WI,2,1,DUST,restaurant_kitchen,R,2.0251,NR,3.0000
115,3,67,513.0895,-501.0875,WO,4,1,SCROLL,gazebo,R,2.0184,NR,3.0000
116,3,68,525.1502,-513.1491,WI,4,2,SOAP,kitchen,R,1.3955,NR,3.0000
117,3,69,537.2095,-525.2075,WO,4,2,WAND,picnic_area,UR,1.5452,NR,3.0000
118,3,70,549.2698,-537.2676,WO,2,1,BATON,aqueduct,NR,999.0000,UR,3.2818
119,3,71,561.3305,-549.3289,WO,4,2,BLANKET,corral,R,1.2794,NR,3.0000
120,3,72,573.3902,-561.3893,WI,4,1,QUILL,car_interior,UR,1.9857,NR,3.0000
121,3,73,585.4500,-573.4480,WI,4,2,FROG,jail_cell,R,2.1313,NR,3.0000
122,3,74,597.5106,-585.5085,WI,4,2,MANURE,classroom,UR,2.1593,NR,3.0000
123,3,75,609.5711,-597.5703,WO,4,2,SCROLL,gazebo,R,1.3144,NR,3.0000
124,3,76,621.6310,-609.6301,WI,2,1,OTTER,pulpit,UR,2.5106,NR,3.0000
125,3,77,633.6903,-621.6881,WO,4,2,BELL,house,R,2.6584,NR,3.0000
126,3,78,645.7513,-633.7494,WI,4,2,QUILL,car_interior,UR,1.2635,NR,3.0000
127,4,55,10.0025,1.9991,WI,2,1,SPONGE,locker_room,UR,1.5058,NR,3.0000
128,4,56,22.0668,-10.0661,WO,4,1,TABLE,dam,UR,1.6611,NR,3.0000
129,4,57,34.1289,-22.1272,WO,2,1,FIDDLE,pond,R,2.2308,NR,3.0000
130,4,58,46.1922,-34.1905,WI,2,1,TROPHY,stage,R,2.2838,NR,3.0000
131,4,59,58.2552,-46.2543,WO,2,1,DAMSEL,baseball_field,UR,2.0510,NR,3.0000
132,4,60,70.3172,-58.3155,WI,2,1,SNAIL,childs_room,UR,2.2453,NR,3.0000
133,4,61,82.3806,-70.3785,WO,2,1,NAPKIN,power_plant,UR,2.0782,NR,3.0000
134,4,62,94.4439,-82.4426,WO,4,1,RING,barn,R,2.3407,NR,3.0000
135,4,63,106.5068,-94.5049,WI,2,1,CHOCOLATE,nursery,R,2.9766,NR,3.0000
136,4,64,118.5702,-106.5685,WO,4,1,PIGEON,lift_bridge,R,2.7228,NR,3.0000
137,4,65,130.6330,-118.6315,WO,2,1,BANANA,chalet,R,2.6140,NR,3.0000
138,4,66,142.6960,-130.6950,WI,2,1,ALLIGATOR,ball_pit,UR,2.1841,NR,3.0000
139,4,67,154.7583,-142.7575,WI,4,1,ZIPPER,restaurant,R,2.1200,NR,3.0000
140,4,68,166.8210,-154.8196,WO,2,1,RASH,observatory,UR,2.6808,NR,3.0000
141,4,69,178.8839,-166.8829,WO,2,1,OATMEAL,palace,NR,999.0000,UR,3.2163
142,4,70,190.9468,-178.9460,WI,4,1,TOBACCO,butchers_shop,R,2.1873,NR,3.0000
143,4,71,203.0097,-191.0077,WI,4,1,RACQUET,catacomb,UR,2.4043,NR,3.0000
144,4,72,215.0731,-203.0710,WO,4,1,SPATULA,promenade_deck,NR,999.0000,R,3.2598
145,4,73,227.1371,-215.1361,WO,4,1,ORNAMENT,carrousel,NR,999.0000,R,3.1438
146,4,74,239.1994,-227.1984,WI,4,2,RACQUET,catacomb,UR,1.2588,NR,3.0000
147,4,75,251.2619,-239.2610,WO,4,2,PIGEON,lift_bridge,R,1.0799,NR,3.0000
148,4,76,263.3247,-251.3239,WO,4,1,RAKE,rope_bridge,UR,1.7490,NR,3.0000
149,4,77,275.3867,-263.3859,WI,4,1,CAGE,bar,UR,1.5278,NR,3.0000
150,4,78,287.4489,-275.4481,WI,4,1,MONKEY,beauty_salon,UR,2.3647,NR,3.0000
151,4,79,299.5109,-287.5096,WO,4,2,TABLE,dam,UR,1.5866,NR,3.0000
152,4,80,311.5737,-299.5723,WO,4,1,HAWK,botanical_garden,UR,1.6040,NR,3.0000
153,4,81,323.6369,-311.6358,WI,4,1,PLUG,dentists_office,R,2.5812,NR,3.0000
154,4,82,335.6995,-323.6980,WI,2,1,BOWL,kitchenette,R,1.6123,NR,3.0000
155,4,83,347.7631,-335.7615,WO,4,2,SPATULA,promenade_deck,R,1.2824,NR,3.0000
156,4,84,359.8263,-347.8246,WI,4,2,ZIPPER,restaurant,R,1.2303,NR,3.0000
157,4,85,371.8895,-359.8886,WI,4,2,TOBACCO,butchers_shop,R,1.6131,NR,3.0000
158,4,86,383.9524,-371.9511,WO,4,2,ORNAMENT,carrousel,NR,999.0000,R,3.7978
159,4,87,396.0151,-384.0135,WI,2,1,LIGHTNING,chicken_coop,UR,2.2696,NR,3.0000
160,4,88,408.0785,-396.0766,WO,4,2,RAKE,rope_bridge,UR,1.3036,NR,3.0000
161,4,89,420.1419,-408.1406,WO,2,1,ICICLE,phone_booth,UR,2.1879,NR,3.0000
162,4,90,432.2048,-420.2041,WI,4,2,PLUG,dentists_office,R,1.6734,NR,3.0000
163,4,91,444.2675,-432.2665,WI,4,1,VIOLIN,galley,R,2.2767,NR,3.0000
164,4,92,456.3301,-444.3282,WO,4,2,HAWK,botanical_garden,UR,2.5651,NR,3.0000
165,4,93,468.3940,-456.3928,WI,4,2,MONKEY,beauty_salon,UR,2.4183,NR,3.0000
166,4,94,480.4569,-468.4550,WO,4,2,RING,barn,NR,999.0000,R,3.5120
167,4,95,492.5202,-480.5177,WI,4,2,CAGE,bar,UR,1.7073,NR,6.5594
168,4,96,504.5848,-492.5833,WI,4,2,VIOLIN,galley,R,1.8901,NR,3.0000
169,5,73,10.0025,1.9991,WO,2,1,WHEAT,fishpond,UR,1.4409,NR,9.4360
170,5,74,22.0625,-10.0603,WI,2,1,WINE,cafeteria,UR,1.5984,NR,3.0000
171,5,75,34.1221,-22.1204,WI,4,1,LETTUCE,bathroom,UR,1.5384,NR,3.0000
172,5,76,46.1808,-34.1790,WO,2,1,TEETH,cottage_garden,UR,1.6322,NR,3.0000
173,5,77,58.2404,-46.2394,WI,2,1,SUNBURN,squash_court,UR,2.0070,NR,3.0000
174,5,78,70.2982,-58.2951,WO,4,1,BRACELET,ice_floe,UR,2.2765,NR,3.0000
175,5,79,82.3582,-70.3574,WO,4,1,TULIP,bridge,UR,1.5215,NR,3.0000
176,5,80,94.4167,-82.4146,WI,4,1,STOMACH,banquet_hall,R,2.1106,NR,3.0000
177,5,81,106.4758,-94.4739,WI,4,2,LETTUCE,bathroom,UR,1.2038,NR,3.0000
178,5,82,118.5356,-106.5346,WO,4,1,VODKA,formal_garden,UR,1.7776,NR,3.0000
179,5,83,130.5937,-118.5926,WI,4,1,TURTLE,shopping_mall,UR,1.8153,NR,3.0000
180,5,84,142.6518,-130.6505,WI,4,2,STOMACH,banquet_hall,R,1.1807,NR,3.0000
181,5,85,154.7102,-142.7093,WO,4,1,LION,mountain,UR,2.1866,NR,3.0000
182,5,86,166.7684,-154.7676,WI,4,1,KEG,badminton_court,UR,1.7587,NR,3.0000
183,5,87,178.8268,-166.8252,WO,4,2,TULIP,bridge,UR,1.5565,NR,3.0000
184,5,88,190.8856,-178.8839,WI,4,1,NECKLACE,movie_theater,R,2.3705,NR,3.0000
185,5,89,202.9443,-190.9426,WO,4,1,BANDIT,construction_site,NR,999.0000,R,3.4350
186,5,90,215.0030,-203.0020,WO,2,1,FIRE,outhouse,R,1.8920,NR,3.0000
187,5,91,227.0613,-215.0601,WO,4,1,HATCHET,playground,UR,2.9425,NR,3.0000
188,5,92,239.1201,-227.1179,WI,2,1,DRUG,assembly_line,UR,2.2530,NR,3.0000
189,5,93,251.1795,-239.1787,WI,2,1,ROCKER,operating_room,NR,999.0000,NR,3.0000
190,5,94,263.2377,-251.2361,WO,4,2,VODKA,formal_garden,UR,1.2647,NR,3.0000
191,5,95,275.2967,-263.2948,WI,4,1,TWEEZERS,supermarket,R,2.7345,NR,3.0000
192,5,96,287.3559,-275.3544,WI,4,1,JACKET,biology_laboratory,NR,999.0000,UR,3.4259
193,5,97,299.4154,-287.4134,WO,4,2,BANDIT,construction_site,R,1.7540,NR,3.0000
194,5,98,311.4745,-299.4725,WI,4,2,TWEEZERS,supermarket,R,1.1922,NR,3.0000
195,5,99,323.5337,-311.5318,WO,4,1,SHELL,iceberg,NR,999.0000,UR,3.2434
196,5,100,335.5934,-323.5912,WO,2,1,WALLET,crevasse,UR,2.2008,NR,3.0000
197,5,101,347.6529,-335.6519,WI,4,2,TURTLE,shopping_mall,R,2.0710,NR,3.0000
198,5,102,359.7118,-347.7098,WI,2,1,SOCK,subway_interior,R,1.5661,NR,3.0000
199,5,103,371.7709,-359.7695,WO,2,1,GARBAGE,landing_deck,UR,2.4426,NR,3.0000
200,5,104,383.8294,-371.8277,WI,4,2,NECKLACE,movie_theater,R,1.9962,NR,3.0000
201,5,105,395.8888,-383.8875,WO,4,2,BRACELET,ice_floe,UR,1.7904,NR,3.0000
202,5,106,407.9472,-395.9458,WO,2,1,WRENCH,ruin,UR,1.3736,NR,3.0000
203,5,107,420.0065,-408.0048,WI,4,2,KEG,badminton_court,UR,1.0908,NR,3.0000
204,5,108,432.0654,-420.0640,WO,4,2,LION,mountain,UR,2.8559,NR,3.0000
205,5,109,444.1242,-432.1234,WO,2,1,EAGLE,pagoda,UR,2.7560,NR,3.0000
206,5,110,456.1827,-444.1819,WI,2,1,BABY,bowling_alley,R,1.8356,NR,3.0000
207,5,111,468.2407,-456.2391,WI,4,2,JACKET,biology_laboratory,R,1.5928,NR,3.0000
208,5,112,480.3002,-468.2987,WI,2,1,TRIBE,auditorium,R,2.6627,NR,3.0000
209,5,113,492.3588,-480.3569,WO,4,2,HATCHET,playground,UR,1.3705,NR,3.0000
210,5,114,504.4181,-492.4167,WO,4,2,SHELL,iceberg,UR,2.0402,NR,3.0000
211,6,91,10.0027,1.9983,WI,4,1,FORK,diner,R,1.5606,NR,3.0000
212,6,92,22.0615,-10.0584,WO,4,1,QUILT,hotel,UR,1.7173,NR,3.0000
213,6,93,34.1204,-22.1194,WO,4,1,CHEESE,railroad_track,UR,2.2485,NR,3.0000
214,6,94,46.1777,-34.1766,WI,4,1,CLAM,optician,UR,1.8349,NR,3.0000
215,6,95,58.2343,-46.2327,WI,2,1,ASPIRIN,athletic_field,UR,1.9383,NR,3.0000
216,6,96,70.2919,-58.2912,WI,4,1,VELVET,parlor,R,2.1917,NR,3.0000
217,6,97,82.3484,-70.3467,WO,2,1,MUSTARD,dock,UR,1.7940,NR,3.0000
218,6,98,94.4057,-82.4041,WI,4,2,CLAM,optician,UR,1.7069,NR,3.0000
219,6,99,106.4639,-94.4618,WI,2,1,TELEGRAPH,kennel,UR,2.2400,NR,3.0000
220,6,100,118.5216,-106.5204,WO,2,1,DAISY,bullring,UR,2.1498,NR,3.0000
221,6,101,130.5792,-118.5770,WO,4,1,SAIL,boat_deck,R,2.0681,NR,3.0000
222,6,102,142.6372,-130.6364,WI,4,1,OYSTER,aquarium,R,1.4243,NR,3.0000
223,6,103,154.6936,-142.6916,WI,2,1,BANDAGE,bistro,UR,2.6878,NR,3.0000
224,6,104,166.7518,-154.7499,WO,2,1,ACROBAT,boathouse,UR,2.6205,NR,3.0000
225,6,105,178.8096,-166.8081,WO,4,1,BRAIN,lighthouse,UR,2.8318,NR,3.0000
226,6,106,190.8668,-178.8661,WO,4,2,SAIL,boat_deck,R,1.2543,NR,3.0000
227,6,107,202.9233,-190.9225,WI,4,1,WORM,drugstore,R,2.3851,NR,3.0000
228,6,108,214.9799,-202.9787,WO,2,1,BROOM,manufactured_home,R,2.0917,NR,3.0000
229,6,109,227.0374,-215.0357,WI,2,1,EASEL,basement,UR,1.7330,NR,3.0000
230,6,110,239.0951,-227.0941,WI,4,2,OYSTER,aquarium,R,1.7656,NR,3.0000
231,6,111,251.1526,-239.1517,WI,4,2,FORK,diner,R,2.2830,NR,3.0000
232,6,112,263.2092,-251.2074,WO,2,1,LIME,arch,UR,1.2563,NR,3.0000
233,6,113,275.2670,-263.2662,WI,2,1,WALRUS,fastfood_restaurant,UR,2.3283,NR,3.0000
234,6,114,287.3237,-275.3228,WO,4,1,DETECTIVE,orchard,UR,2.0835,NR,3.0000
235,6,115,299.3804,-287.3793,WO,4,2,QUILT,hotel,UR,2.1616,NR,3.0000
236,6,116,311.4382,-299.4371,WI,4,2,WORM,drugstore,R,1.4557,NR,3.0000
237,6,117,323.4951,-311.4944,WO,4,2,DETECTIVE,orchard,UR,2.4202,NR,3.0000
238,6,118,335.5517,-323.5500,WO,4,2,BRAIN,lighthouse,UR,1.3790,NR,3.0000
239,6,119,347.6100,-335.6090,WI,4,1,FENCE,train_station,UR,2.7600,NR,3.0000
240,6,120,359.6669,-347.6659,WI,4,2,VELVET,parlor,NR,999.0000,R,3.1203
241,6,121,371.7256,-359.7244,WI,4,1,TROLLEY,candy_store,UR,1.9208,NR,3.0000
242,6,122,383.7827,-371.7812,WO,4,1,RABBIT,hot_tub,UR,1.7034,NR,3.0000
243,6,123,395.8401,-383.8387,WO,4,2,RABBIT,hot_tub,UR,1.3816,NR,3.0000
244,6,124,407.8990,-395.8979,WI,2,1,ROSARY,ice_skating_rink,UR,1.8833,NR,3.0000
245,6,125,419.9561,-407.9543,WO,4,2,CHEESE,railroad_track,UR,1.2489,NR,3.0000
246,6,126,432.0156,-420.0150,WO,4,1,BONE,boardwalk,NR,999.0000,R,3.0972
247,6,127,444.0723,-432.0711,WO,2,1,MILK,rock_arch,UR,2.6599,NR,3.0000
248,6,128,456.1295,-444.1274,WI,4,2,TROLLEY,candy_store,NR,999.0000,UR,3.0754
249,6,129,468.1875,-456.1854,WI,4,2,FENCE,train_station,R,1.6788,NR,3.0000
250,6,130,480.2459,-468.2447,WO,2,1,ARMOR,igloo,UR,1.8269,NR,3.0000
251,6,131,492.3037,-480.3026,WI,2,1,BOOT,office,R,2.0179,NR,3.0000
252,6,132,504.3612,-492.3590,WO,4,2,BONE,boardwalk,UR,2.8621,R,3.9624
253,7,109,10.0031,1.9990,WI,2,2,ANCHOR,riding_arena,UR,1.8121,NR,3.0000
254,7,110,22.0678,-10.0658,WI,4,3,HAM,toyshop,UR,1.0821,NR,3.0000
255,7,111,34.1301,-22.1284,WO,2,2,BIBLE,river,UR,2.0549,NR,3.0000
256,7,112,46.1923,-34.1908,WO,4,3,SQUIRREL,bamboo_forest,R,1.1811,NR,3.0000
257,7,113,58.2547,-46.2533,WI,4,4,HAM,toyshop,UR,1.3938,NR,3.0000
258,7,114,70.3163,-58.3140,WO,2,2,PEARL,lock_chamber,R,1.8549,NR,3.0000
259,7,115,82.3796,-70.3778,WO,4,3,NEST,ocean,R,1.4031,NR,3.0000
260,7,116,94.4417,-82.4394,WO,4,3,TRAY,office_building,UR,1.3763,NR,3.0000
261,7,117,106.5045,-94.5023,WI,2,2,HONEY,pantry,R,1.7187,NR,3.0000
262,7,118,118.5678,-106.5656,WO,4,3,SHEEP,general_store,UR,1.7638,NR,3.0000
263,7,119,130.6305,-118.6292,WO,4,4,TRAY,office_building,UR,1.6249,NR,3.0000
264,7,120,142.6929,-130.6923,WI,2,2,WOLF,garage,UR,1.4315,R,8.4093
265,7,121,154.7542,-142.7524,WO,2,2,PENCIL,mausoleum,UR,1.7252,NR,3.0000
266,7,122,166.8165,-154.8153,WI,4,3,GEESE,synagogue,UR,1.5781,NR,3.0000
267,7,123,178.8789,-166.8766,WI,4,3,SHOVEL,hospital_room,R,2.0219,NR,3.0000
268,7,124,190.9417,-178.9404,WI,4,3,BASKET,ballroom,R,2.6127,NR,3.0000
269,7,125,203.0043,-191.0023,WO,4,3,ASPARAGUS,canal,NR,999.0000,UR,3.0434
270,7,126,215.0667,-203.0639,WI,2,2,SYRUP,bazaar,R,1.5966,NR,3.0000
271,7,127,227.1301,-215.1292,WO,4,3,ACCORDIAN,cliff,NR,999.0000,R,4.2573
272,7,128,239.1915,-227.1900,WI,4,4,SHOVEL,hospital_room,R,1.2947,NR,3.0000
273,7,129,251.2536,-239.2515,WO,2,2,CANARY,nuclear_power_plant,UR,1.3006,NR,3.0000
274,7,130,263.3168,-251.3155,WO,2,2,PUMPKIN,kasbah,UR,1.6889,NR,3.0000
275,7,131,275.3786,-263.3770,WI,4,3,SHOWER,bus_interior,R,1.7667,NR,3.0000
276,7,132,287.4407,-275.4386,WI,4,3,SHRIMP,elevator,R,1.5544,NR,3.0000
277,7,133,299.5040,-287.5029,WO,4,4,SQUIRREL,bamboo_forest,R,1.1275,NR,3.0000
278,7,134,311.5658,-299.5636,WO,4,3,BROWNIE,greenhouse,R,1.1100,NR,3.0000
279,7,135,323.6289,-311.6274,WI,4,4,SHOWER,bus_interior,R,1.5694,NR,3.0000
280,7,136,335.6910,-323.6896,WI,2,2,YACHT,brewery,UR,2.4943,NR,3.0000
281,7,137,347.7530,-335.7510,WO,4,4,NEST,ocean,UR,1.6779,NR,3.0000
282,7,138,359.8161,-347.8154,WO,2,2,CAMERA,balcony,UR,1.6267,NR,3.0000
283,7,139,371.8775,-359.8753,WI,4,4,BASKET,ballroom,R,0.9516,NR,3.0000
284,7,140,383.9408,-371.9401,WO,4,4,BROWNIE,greenhouse,R,1.3562,NR,3.0000
285,7,141,396.0023,-384.0015,WI,4,3,SLIPPER,cockpit,UR,1.9385,NR,3.0000
286,7,142,408.0639,-396.0623,WO,4,4,ACCORDIAN,cliff,UR,1.2946,NR,3.0000
287,7,143,420.1266,-408.1248,WI,4,4,GEESE,synagogue,UR,1.3248,NR,3.0000
288,7,144,432.1892,-420.1874,WI,4,4,SHRIMP,elevator,R,1.8152,NR,3.0000
289,7,145,444.2522,-432.2504,WO,4,4,SHEEP,general_store,UR,2.7196,NR,3.0000
290,7,146,456.3148,-444.3136,WI,2,2,RICE,sauna,NR,999.0000,UR,3.3441
291,7,147,468.3767,-456.3753,WI,4,4,SLIPPER,cockpit,UR,1.4103,NR,3.0000
292,7,148,480.4393,-468.4380,WO,2,2,CANDLE,castle,UR,2.1786,NR,3.0000
293,7,149,492.5011,-480.5000,WI,2,2,CLARINET,stable,UR,2.4331,NR,3.0000
294,7,150,504.5636,-492.5620,WO,4,4,ASPARAGUS,canal,UR,1.8874,NR,3.0000
295,8,127,10.0027,2.0001,WI,4,3,BALLOON,engine_room,UR,1.9360,NR,3.0000
296,8,128,22.0680,-10.0665,WI,4,3,WHIP,ice_cream_parlor,R,1.5154,NR,3.0000
297,8,129,34.1300,-22.1289,WO,2,2,GOAT,field_wild,R,1.2750,NR,3.0000
298,8,130,46.1914,-34.1902,WO,4,3,CRADLE,desert,UR,1.7276,NR,3.0000
299,8,131,58.2530,-46.2508,WI,4,3,BARREL,control_room,UR,0.9639,NR,3.0000
300,8,132,70.3154,-58.3139,WI,4,3,SCORPION,closet,UR,1.5214,NR,3.0000
301,8,133,82.3772,-70.3754,WI,2,2,POWDER,game_room,UR,1.1763,NR,3.0000
302,8,134,94.4397,-82.4389,WO,4,3,UMBRELLA,electrical_substation,UR,1.1419,R,3.7369
303,8,135,106.5005,-94.4994,WO,4,3,SARDINE,inn,UR,1.4891,NR,3.0000
304,8,136,118.5617,-106.5604,WI,2,2,SCREWDRIVER,music_studio,UR,1.1283,NR,3.0000
305,8,137,130.6241,-118.6223,WO,4,3,PIANO,beach,UR,1.0451,NR,3.0000
306,8,138,142.6861,-130.6854,WI,2,2,CUCUMBER,tennis_court,UR,1.2830,NR,3.0000
307,8,139,154.7475,-142.7461,WO,4,4,PIANO,beach,UR,1.0634,R,4.7310
308,8,140,166.8094,-154.8087,WI,4,4,WHIP,ice_cream_parlor,R,1.1484,R,7.7213
309,8,141,178.8706,-166.8685,WO,2,2,SHARK,rice_paddy,UR,1.1772,NR,3.0000
310,8,142,190.9336,-178.9322,WI,4,4,SCORPION,closet,UR,1.0110,NR,3.0000
311,8,143,202.9953,-190.9941,WI,2,2,CRAB,courtroom,UR,0.9763,NR,3.0000
312,8,144,215.0572,-203.0554,WO,4,4,SARDINE,inn,UR,1.2851,NR,3.0000
313,8,145,227.1197,-215.1183,WI,4,4,BALLOON,engine_room,UR,1.2823,NR,3.0000
314,8,146,239.1815,-227.1803,WI,2,2,MEDICINE,escalator,UR,0.9776,NR,3.0000
315,8,147,251.2435,-239.2422,WI,4,3,ARROW,gymnasium,UR,1.0066,NR,3.0000
316,8,148,263.3052,-251.3031,WO,4,3,STOOL,field_cultivated,UR,1.2187,NR,3.0000
317,8,149,275.3677,-263.3661,WO,2,2,MITTEN,plaza,UR,1.9111,NR,3.0000
318,8,150,287.4301,-275.4272,WI,2,2,NOODLE,television_studio,NR,999.0000,UR,3.1693
319,8,151,299.4937,-287.4917,WO,2,2,SOUP,hayfield,UR,1.6595,NR,3.0000
320,8,152,311.5570,-299.5553,WO,4,4,STOOL,field_cultivated,UR,2.1468,NR,3.0000
321,8,153,323.6193,-311.6180,WO,4,3,LAMB,driving_range,UR,1.7124,NR,3.0000
322,8,154,335.6815,-323.6796,WI,4,3,MAP,auto_factory,R,1.5682,NR,3.0000
323,8,155,347.7448,-335.7427,WI,4,4,BARREL,control_room,UR,2.1407,NR,3.0000
324,8,156,359.8077,-347.8058,WO,2,2,POTATO,forest_path,UR,2.9345,NR,3.0000
325,8,157,371.8711,-359.8703,WO,2,2,CROWN,creek,UR,1.4839,NR,3.0000
326,8,158,383.9327,-371.9305,WI,4,4,ARROW,gymnasium,UR,1.9495,NR,3.0000
327,8,159,395.9958,-383.9950,WO,4,3,BOAT,beach,UR,2.8475,R,3.8911
328,8,160,408.0579,-396.0564,WI,4,3,STAPLER,swimming_pool,UR,1.0920,NR,3.0000
329,8,161,420.1203,-408.1182,WO,4,4,CRADLE,desert,UR,1.4661,NR,3.0000
330,8,162,432.1835,-420.1814,WI,4,4,MAP,auto_factory,R,1.5750,NR,3.0000
331,8,163,444.2461,-432.2449,WO,2,2,DOVE,moat,UR,1.8879,NR,3.0000
332,8,164,456.3094,-444.3072,WO,4,4,LAMB,driving_range,UR,0.8995,NR,3.0000
333,8,165,468.3728,-456.3716,WI,2,2,SOOT,parking_garage,UR,0.8702,NR,3.0000
334,8,166,480.4345,-468.4323,WO,4,4,BOAT,beach,R,2.7138,NR,3.0000
335,8,167,492.4979,-480.4966,WI,4,4,STAPLER,swimming_pool,UR,1.7704,NR,3.0000
336,8,168,504.5597,-492.5582,WO,4,4,UMBRELLA,electrical_substation,UR,1.4638,NR,3.0000
337,9,145,10.0037,1.9971,WI,4,3,FROG,jail_cell,R,1.4473,NR,3.0000
338,9,146,22.0710,-10.0693,WO,4,3,BLANKET,corral,R,1.6315,NR,3.0000
339,9,147,34.1372,-22.1360,WO,2,2,QUAIL,oilrig,UR,1.3977,NR,3.0000
340,9,148,46.2030,-34.2010,WO,4,3,EMPEROR,badlands,UR,1.0906,NR,3.0000
341,9,149,58.2697,-46.2683,WI,4,3,SOAP,kitchen,R,1.8776,NR,3.0000
342,9,150,70.3357,-58.3339,WO,4,3,SCOTCH,highway,R,1.3849,NR,3.0000
343,9,151,82.4027,-70.4012,WO,2,2,CORAL,motel,UR,1.7847,NR,3.0000
344,9,152,94.4690,-82.4674,WO,2,2,BATON,aqueduct,UR,1.4126,NR,3.0000
345,9,153,106.5353,-94.5339,WI,4,3,DRUM,cathedral,UR,1.3086,NR,3.0000
346,9,154,118.6019,-106.6003,WO,4,4,SCOTCH,highway,R,1.3645,R,11.3234
347,9,155,130.6680,-118.6667,WI,4,4,SOAP,kitchen,R,0.9992,NR,3.0000
348,9,156,142.7346,-130.7335,WI,2,2,LAMP,art_gallery,R,2.6399,NR,3.0000
349,9,157,154.8004,-142.7985,WI,4,4,FROG,jail_cell,R,1.4128,NR,3.0000
350,9,158,166.8670,-154.8653,WO,4,3,VINE,marsh,UR,1.6674,NR,3.0000
351,9,159,178.9340,-166.9328,WO,4,4,VINE,marsh,UR,2.2425,NR,3.0000
352,9,160,190.9999,-178.9991,WO,4,3,BELL,house,R,1.5758,NR,3.0000
353,9,161,203.0661,-191.0647,WI,2,2,DUST,restaurant_kitchen,R,2.8224,NR,3.0000
354,9,162,215.1323,-203.1311,WI,4,4,DRUM,cathedral,UR,1.8030,NR,3.0000
355,9,163,227.1983,-215.1971,WI,4,3,MOUSE,airplane_cabin,R,1.5770,NR,3.0000
356,9,164,239.2649,-227.2633,WO,4,4,BLANKET,corral,NR,999.0000,R,4.6651
357,9,165,251.3313,-239.3306,WI,4,3,QUILL,car_interior,UR,1.1467,NR,3.0000
358,9,166,263.3974,-251.3959,WO,2,2,CLOAK,herb_garden,UR,1.1998,NR,3.0000
359,9,167,275.4636,-263.4625,WI,2,2,SALAD,living_room,R,1.7158,NR,3.0000
360,9,168,287.5293,-275.5272,WI,4,3,MANURE,classroom,UR,1.9664,NR,3.0000
361,9,169,299.5963,-287.5955,WI,2,2,PASSPORT,florist_shop,UR,1.7152,NR,3.0000
362,9,170,311.6620,-299.6610,WO,4,3,SCROLL,gazebo,R,1.4646,NR,3.0000
363,9,171,323.7284,-311.7271,WI,4,4,MANURE,classroom,UR,0.9993,NR,3.0000
364,9,172,335.7948,-323.7920,WO,4,4,BELL,house,R,2.2283,NR,3.0000
365,9,173,347.8625,-335.8595,WO,4,4,EMPEROR,badlands,UR,2.0738,NR,3.0000
366,9,174,359.9310,-347.9290,WI,4,3,HOSE,home_office,R,1.1967,NR,3.0000
367,9,175,371.9979,-359.9957,WI,2,2,PENNY,bookstore,R,1.3286,NR,3.0000
368,9,176,384.0653,-372.0634,WI,4,4,QUILL,car_interior,UR,1.0450,NR,3.0000
369,9,177,396.1320,-384.1309,WO,4,3,WAND,picnic_area,UR,1.3151,NR,3.0000
370,9,178,408.1985,-396.1962,WI,2,2,PANTS,cubicle,R,1.1602,NR,3.0000
371,9,179,420.2662,-408.2652,WO,4,4,SCROLL,gazebo,R,1.8939,NR,3.0000
372,9,180,432.3324,-420.3303,WI,4,4,MOUSE,airplane_cabin,R,1.3391,NR,3.0000
373,9,181,444.4000,-432.3990,WO,4,4,WAND,picnic_area,UR,2.7341,NR,3.0000
374,9,182,456.4660,-444.4640,WI,4,4,HOSE,home_office,R,1.6278,NR,3.0000
375,9,183,468.5331,-456.5308,WI,2,2,OTTER,pulpit,UR,1.7056,NR,3.0000
376,9,184,480.6010,-468.5991,WO,2,2,TOAST,bayou,R,1.1508,NR,3.0000
377,9,185,492.6677,-480.6664,WO,2,2,ROCK,canyon,R,1.2919,NR,3.0000
378,9,186,504.7343,-492.7322,WO,2,2,CANDY,fire_station,R,2.0571,NR,3.0000
379,10,163,10.0031,1.9978,WO,4,3,RAKE,rope_bridge,UR,1.0953,NR,3.0000
380,10,164,22.0737,-10.0723,WI,4,3,VIOLIN,galley,R,1.3083,NR,3.0000
381,10,165,34.1426,-22.1417,WI,4,3,CAGE,bar,UR,0.9578,NR,3.0000
382,10,166,46.2105,-34.2088,WO,4,3,PIGEON,lift_bridge,R,1.3717,NR,3.0000
383,10,167,58.2793,-46.2778,WO,4,3,RING,barn,R,1.7384,NR,3.0000
384,10,168,70.3489,-58.3468,WI,2,2,BOWL,kitchenette,R,1.1780,R,5.3010
385,10,169,82.4186,-70.4172,WI,4,3,PLUG,dentists_office,R,1.2207,NR,3.0000
386,10,170,94.4870,-82.4852,WI,2,2,SNAIL,childs_room,UR,1.2247,NR,6.8282
387,10,171,106.5559,-94.5537,WO,2,2,RASH,observatory,UR,1.5716,NR,3.0000
388,10,172,118.6255,-106.6239,WI,4,3,ZIPPER,restaurant,R,1.1780,NR,3.0000
389,10,173,130.6943,-118.6930,WI,4,3,TOBACCO,butchers_shop,R,1.3921,NR,3.0000
390,10,174,142.7627,-130.7616,WO,4,4,PIGEON,lift_bridge,R,0.9281,NR,3.0000
391,10,175,154.8315,-142.8294,WO,4,3,TABLE,dam,UR,1.1478,NR,3.0000
392,10,176,166.9009,-154.8990,WI,4,4,VIOLIN,galley,R,1.4597,NR,3.0000
393,10,177,178.9698,-166.9683,WO,4,3,SPATULA,promenade_deck,R,1.9793,NR,3.0000
394,10,178,191.0392,-179.0377,WI,2,2,LIGHTNING,chicken_coop,R,1.6479,NR,3.0000
395,10,179,203.1079,-191.1066,WO,4,4,RAKE,rope_bridge,UR,1.3016,NR,3.0000
396,10,180,215.1770,-203.1762,WI,4,3,MONKEY,beauty_salon,UR,1.4012,NR,3.0000
397,10,181,227.2452,-215.2445,WO,4,3,HAWK,botanical_garden,UR,1.3964,NR,11.5057
398,10,182,239.3132,-227.3115,WO,4,4,RING,barn,R,0.9787,NR,3.0000
399,10,183,251.3830,-239.3810,WI,4,3,RACQUET,catacomb,UR,1.3322,NR,3.0000
400,10,184,263.4520,-251.4507,WI,4,4,MONKEY,beauty_salon,UR,1.0774,NR,3.0000
401,10,185,275.5208,-263.5197,WO,2,2,FIDDLE,pond,R,1.3634,NR,3.0000
402,10,186,287.5893,-275.5878,WO,2,2,ICICLE,phone_booth,UR,1.5450,NR,3.0000
403,10,187,299.6582,-287.6565,WI,2,2,ALLIGATOR,ball_pit,UR,0.9070,NR,9.6751
404,10,188,311.7276,-299.7257,WO,2,2,NAPKIN,power_plant,UR,1.0533,NR,3.0000
405,10,189,323.7969,-311.7957,WI,4,4,RACQUET,catacomb,UR,0.9393,NR,8.9889
406,10,190,335.8657,-323.8639,WI,2,2,CHOCOLATE,nursery,R,1.2992,NR,3.0000
407,10,191,347.9350,-335.9334,WO,4,3,ORNAMENT,carrousel,R,1.1951,NR,3.0000
408,10,192,360.0043,-348.0029,WO,4,4,TABLE,dam,UR,1.0813,NR,3.0000
409,10,193,372.0733,-360.0716,WI,2,2,TROPHY,stage,R,1.5015,NR,3.0000
410,10,194,384.1427,-372.1408,WI,4,4,PLUG,dentists_office,R,1.0419,NR,3.0000
411,10,195,396.2129,-384.2121,WO,2,2,OATMEAL,palace,UR,1.5031,NR,3.0000
412,10,196,408.2816,-396.2804,WO,2,2,DAMSEL,baseball_field,UR,1.2240,NR,3.0000
413,10,197,420.3512,-408.3501,WO,4,4,ORNAMENT,carrousel,R,1.0032,NR,3.0000
414,10,198,432.4204,-420.4191,WI,4,4,CAGE,bar,UR,1.0246,NR,3.0000
415,10,199,444.4897,-432.4880,WO,2,2,BANANA,chalet,R,1.2985,NR,3.0000
416,10,200,456.5599,-444.5585,WI,4,4,TOBACCO,butchers_shop,R,0.9744,NR,3.0000
417,10,201,468.6293,-456.6281,WO,4,4,SPATULA,promenade_deck,R,1.0965,NR,8.3313
418,10,202,480.6986,-468.6975,WO,4,4,HAWK,botanical_garden,UR,1.0918,NR,3.0000
419,10,203,492.7676,-480.7666,WI,4,4,ZIPPER,restaurant,R,1.1947,NR,3.0000
420,10,204,504.8364,-492.8343,WI,2,2,SPONGE,locker_room,UR,1.1569,NR,3.0000
421,11,181,10.0039,1.9981,WI,4,3,TURTLE,shopping_mall,R,1.4633,NR,3.0000
422,11,182,22.0727,-10.0720,WI,4,3,JACKET,biology_laboratory,R,1.1734,NR,3.0000
423,11,183,34.1379,-22.1363,WO,4,3,BANDIT,construction_site,R,1.2545,NR,3.0000
424,11,184,46.2059,-34.2052,WO,4,3,TULIP,bridge,UR,1.1181,NR,3.0000
425,11,185,58.2706,-46.2691,WO,4,3,LION,mountain,UR,2.1724,NR,3.0000
426,11,186,70.3362,-58.3345,WI,2,2,TRIBE,auditorium,R,1.2658,NR,3.0000
427,11,187,82.4029,-70.4016,WI,4,3,LETTUCE,bathroom,UR,1.4665,NR,3.0000
428,11,188,94.4685,-82.4671,WO,4,3,VODKA,formal_garden,UR,1.2343,R,10.1413
429,11,189,106.5351,-94.5329,WO,2,2,WHEAT,fishpond,UR,1.6557,NR,3.0000
430,11,190,118.6017,-106.5998,WI,4,4,JACKET,biology_laboratory,R,1.2888,NR,3.0000
431,11,191,130.6681,-118.6670,WI,4,4,TURTLE,shopping_mall,R,1.2901,NR,3.0000
432,11,192,142.7356,-130.7338,WO,2,2,WALLET,crevasse,UR,1.4275,NR,3.0000
433,11,193,154.8022,-142.8007,WI,2,2,BABY,bowling_alley,R,1.6573,NR,3.0000
434,11,194,166.8685,-154.8678,WO,4,3,HATCHET,playground,UR,1.3666,NR,3.0000
435,11,195,178.9337,-166.9321,WO,2,2,EAGLE,pagoda,UR,2.4356,NR,3.0000
436,11,196,190.9997,-178.9978,WO,4,3,BRACELET,ice_floe,UR,1.5006,NR,3.0000
437,11,197,203.0682,-191.0668,WI,2,2,ROCKER,operating_room,UR,2.8362,NR,3.0000
438,11,198,215.1339,-203.1321,WI,4,3,NECKLACE,movie_theater,R,1.5512,NR,3.0000
439,11,199,227.2010,-215.1999,WO,4,3,SHELL,iceberg,UR,1.9032,NR,3.0000
440,11,200,239.2668,-227.2644,WI,4,3,TWEEZERS,supermarket,R,1.7068,NR,3.0000
441,11,201,251.3352,-239.3333,WO,2,2,WRENCH,ruin,NR,999.0000,NR,3.0000
442,11,202,263.4021,-251.4007,WI,4,4,TWEEZERS,supermarket,R,1.6116,NR,3.0000
443,11,203,275.4692,-263.4682,WO,4,4,TULIP,bridge,UR,1.6488,NR,3.0000
444,11,204,287.5354,-275.5342,WO,2,2,TEETH,cottage_garden,UR,1.2978,NR,3.0000
445,11,205,299.6010,-287.5993,WI,4,3,KEG,badminton_court,UR,1.4590,NR,3.0000
446,11,206,311.6671,-299.6658,WI,2,2,DRUG,assembly_line,UR,2.3542,NR,3.0000
447,11,207,323.7332,-311.7314,WO,4,4,HATCHET,playground,UR,1.7691,NR,3.0000
448,11,208,335.8012,-323.7993,WI,4,4,NECKLACE,movie_theater,R,1.4361,NR,3.0000
449,11,209,347.8680,-335.8660,WO,4,4,BRACELET,ice_floe,UR,1.5518,NR,3.0000
450,11,210,359.9345,-347.9330,WI,4,4,LETTUCE,bathroom,UR,1.2345,NR,3.0000
451,11,211,372.0006,-359.9985,WI,4,3,STOMACH,banquet_hall,R,1.6251,NR,3.0000
452,11,212,384.0679,-372.0662,WI,2,2,SUNBURN,squash_court,UR,2.1658,NR,3.0000
453,11,213,396.1341,-384.1325,WO,4,4,SHELL,iceberg,UR,1.7380,NR,3.0000
454,11,214,408.2005,-396.1997,WO,2,2,GARBAGE,landing_deck,UR,1.4785,NR,3.0000
455,11,215,420.2661,-408.2651,WI,2,2,WINE,cafeteria,UR,1.5026,NR,3.0000
456,11,216,432.3316,-420.3309,WO,2,2,FIRE,outhouse,R,1.5736,NR,3.0000
457,11,217,444.3977,-432.3949,WO,4,4,LION,mountain,UR,1.2009,NR,3.0000
458,11,218,456.4650,-444.4635,WI,4,4,KEG,badminton_court,UR,1.4946,NR,3.0000
459,11,219,468.5315,-456.5303,WI,2,2,SOCK,subway_interior,R,1.4831,NR,3.0000
460,11,220,480.5974,-468.5962,WI,4,4,STOMACH,banquet_hall,R,1.4669,NR,3.0000
461,11,221,492.6632,-480.6624,WO,4,4,VODKA,formal_garden,UR,1.2147,NR,3.0000
462,11,222,504.7292,-492.7280,WO,4,4,BANDIT,construction_site,R,1.5984,NR,3.0000
463,12,199,10.0045,1.9976,WO,2,2,ACROBAT,boathouse,NR,999.0000,UR,4.1999
464,12,200,22.0737,-10.0717,WO,4,3,CHEESE,railroad_track,UR,1.1891,NR,3.0000
465,12,201,34.1412,-22.1399,WO,4,3,DETECTIVE,orchard,UR,1.2715,NR,3.0000
466,12,202,46.2075,-34.2055,WI,4,3,FENCE,train_station,R,1.3201,NR,3.0000
467,12,203,58.2752,-46.2735,WO,2,2,DAISY,bullring,UR,1.0609,NR,3.0000
468,12,204,70.3422,-58.3409,WO,2,2,LIME,arch,UR,1.3465,NR,3.0000
469,12,205,82.4086,-70.4072,WI,2,2,WALRUS,fastfood_restaurant,UR,1.2226,NR,3.0000
470,12,206,94.4758,-82.4751,WO,4,3,BRAIN,lighthouse,UR,1.3558,NR,3.0000
471,12,207,106.5419,-94.5397,WO,4,4,BRAIN,lighthouse,UR,1.6490,NR,3.0000
472,12,208,118.6097,-106.6085,WI,4,3,OYSTER,aquarium,R,1.2628,NR,3.0000
473,12,209,130.6761,-118.6748,WO,4,3,QUILT,hotel,UR,1.9468,NR,3.0000
474,12,210,142.7428,-130.7418,WI,2,2,BANDAGE,bistro,UR,1.4816,NR,3.0000
475,12,211,154.8097,-142.8066,WI,4,3,WORM,drugstore,R,1.2625,NR,3.0000
476,12,212,166.8779,-154.8765,WO,2,2,MILK,rock_arch,UR,1.1875,NR,3.0000
477,12,213,178.9450,-166.9432,WI,4,4,WORM,drugstore,R,1.4794,NR,3.0000
478,12,214,191.0120,-179.0105,WO,4,3,RABBIT,hot_tub,UR,1.1823,NR,3.0000
479,12,215,203.0788,-191.0772,WI,2,2,ROSARY,ice_skating_rink,UR,1.6351,NR,3.0000
480,12,216,215.1462,-203.1440,WO,2,2,MUSTARD,dock,UR,1.6935,NR,3.0000
481,12,217,227.2136,-215.2126,WO,4,4,RABBIT,hot_tub,UR,1.3793,NR,3.0000
482,12,218,239.2802,-227.2791,WI,4,3,FORK,diner,R,1.6807,NR,3.0000
483,12,219,251.3467,-239.3446,WI,2,2,BOOT,office,R,1.4856,NR,3.0000
484,12,220,263.4142,-251.4121,WO,4,3,BONE,boardwalk,R,1.3358,NR,3.0000
485,12,221,275.4822,-263.4809,WI,4,3,TROLLEY,candy_store,UR,2.5665,NR,3.0000
486,12,222,287.5487,-275.5470,WI,4,3,CLAM,optician,UR,1.8177,NR,3.0000
487,12,223,299.6178,-287.6167,WO,4,4,CHEESE,railroad_track,UR,1.4440,NR,3.0000
488,12,224,311.6857,-299.6839,WI,4,4,TROLLEY,candy_store,UR,1.6054,NR,3.0000
489,12,225,323.7544,-311.7530,WI,2,2,EASEL,basement,UR,1.3993,NR,3.0000
490,12,226,335.8215,-323.8194,WO,2,2,BROOM,manufactured_home,R,1.4265,NR,3.0000
491,12,227,347.8890,-335.8882,WO,4,3,SAIL,boat_deck,R,1.5761,NR,3.0000
492,12,228,359.9555,-347.9538,WI,2,2,TELEGRAPH,kennel,UR,2.0228,NR,3.0000
493,12,229,372.0227,-360.0213,WO,4,4,SAIL,boat_deck,R,1.3502,NR,3.0000
494,12,230,384.0900,-372.0882,WI,4,4,FENCE,train_station,R,1.1976,NR,3.0000
495,12,231,396.1580,-384.1549,WI,4,3,VELVET,parlor,R,1.8892,NR,3.0000
496,12,232,408.2263,-396.2251,WO,2,2,ARMOR,igloo,UR,1.8081,NR,3.0000
497,12,233,420.2934,-408.2912,WO,4,4,BONE,boardwalk,R,2.1868,NR,3.0000
498,12,234,432.3612,-420.3597,WI,4,4,FORK,diner,R,2.3284,NR,3.0000
499,12,235,444.4282,-432.4274,WO,4,4,QUILT,hotel,UR,1.8441,NR,3.0000
500,12,236,456.4955,-444.4939,WI,4,4,CLAM,optician,UR,0.9408,NR,3.0000
501,12,237,468.5625,-456.5608,WI,4,4,OYSTER,aquarium,R,1.0485,NR,10.5864
502,12,238,480.6304,-468.6289,WI,4,4,VELVET,parlor,R,0.7910,NR,3.0000
503,12,239,492.6972,-480.6954,WO,4,4,DETECTIVE,orchard,UR,1.4512,NR,3.0000
504,12,240,504.7645,-492.7636,WI,2,2,ASPIRIN,athletic_field,UR,1.1291,NR,3.0000
