index,run,trial,onset,duration,cond,repType,repCount,word,pic,resp,respRT,ISIresp,ISIrespRT
1,1,1,10.0042,1.9975,WO,2,1,ZIPPER,cabin,UR,2.2689,NR,3.0000
2,1,2,22.0620,-10.0612,WI,4,1,OWL,natural_history_museum,R,1.9441,NR,3.0000
3,1,3,34.1141,-22.1125,WI,4,1,SCAB,lecture_room,R,2.8444,NR,3.0000
4,1,4,46.1682,-34.1675,WO,4,1,MANURE,corn_field,R,2.0585,NR,3.0000
5,1,5,58.2221,-46.2210,WI,4,1,LETTUCE,bookstore,NR,999.0000,R,3.3610
6,1,6,70.2757,-58.2742,WI,4,2,SCAB,lecture_room,R,2.3492,NR,3.0000
7,1,7,82.3305,-70.3287,WO,2,1,CHOCOLATE,chalet,R,2.6448,NR,3.0000
8,1,8,94.3850,-82.3829,WO,4,1,SARDINE,raceway,UR,1.8761,NR,3.0000
9,1,9,106.4399,-94.4392,WI,4,1,DETECTIVE,banquet_hall,R,2.4906,NR,3.0000
10,1,10,118.4934,-106.4914,WO,4,2,MANURE,corn_field,R,1.8053,NR,3.0000
11,1,11,130.5481,-118.5465,WI,2,1,MUFFIN,bazaar,R,2.1377,NR,3.0000
12,1,12,142.6031,-130.6012,WO,4,1,DRUM,lido_deck,UR,2.4469,NR,3.0000
13,1,13,154.6578,-142.6563,WI,4,2,DETECTIVE,banquet_hall,R,1.8821,NR,3.0000
14,1,14,166.7120,-154.7100,WI,4,1,WORM,closet,UR,2.5361,NR,3.0000
15,1,15,178.7676,-166.7658,WO,4,1,FAN,dam,UR,2.7519,NR,3.0000
16,1,16,190.8221,-178.8202,WO,2,1,DOUGHNUT,motel,UR,2.9642,NR,3.0000
17,1,17,202.8774,-190.8753,WI,4,1,NOODLE,escalator,UR,2.5661,NR,3.0000
18,1,18,214.9325,-202.9309,WO,4,1,VODKA,oilrig,NR,999.0000,R,3.0110
19,1,19,226.9870,-214.9855,WI,2,1,QUILT,cubicle,NR,999.0000,UR,3.1235
20,1,20,239.0420,-227.0407,WI,2,1,TURTLE,garage,NR,999.0000,R,3.4646
21,1,21,251.0962,-239.0945,WO,2,1,CORAL,herb_garden,R,2.8514,NR,3.0000
22,1,22,263.1515,-251.1492,WI,4,2,OWL,natural_history_museum,R,1.6102,NR,3.0000
23,1,23,275.2067,-263.2053,WO,4,1,KILT,islet,UR,2.6176,NR,3.0000
24,1,24,287.2609,-275.2600,WO,2,1,SUBMARINE,pavilion,NR,999.0000,R,3.7372
25,1,25,299.3153,-287.3137,WO,4,2,VODKA,oilrig,R,2.1937,NR,3.0000
26,1,26,311.3699,-299.3684,WI,2,1,DIAMOND,pulpit,R,2.2152,NR,3.0000
27,1,27,323.4250,-311.4243,WO,4,2,KILT,islet,UR,2.9261,NR,3.0000
28,1,28,335.4788,-323.4770,WO,4,2,DRUM,lido_deck,R,1.8836,NR,3.0000
29,1,29,347.5335,-335.5327,WO,4,2,SARDINE,raceway,UR,2.6006,NR,3.0000
30,1,30,359.5879,-347.5872,WI,2,1,LIME,theater,UR,2.8782,NR,3.0000
31,1,31,371.6418,-359.6396,WI,4,2,LETTUCE,bookstore,R,1.9106,NR,3.0000
32,1,32,383.6975,-371.6956,WO,4,2,FAN,dam,NR,999.0000,UR,3.7836
33,1,33,395.7524,-383.7515,WI,4,2,WORM,closet,UR,2.0112,NR,3.0000
34,1,34,407.8064,-395.8051,WI,4,2,NOODLE,escalator,NR,999.0000,UR,3.9841
35,1,35,419.8615,-407.8599,WI,4,1,CAGE,brewery,R,1.8933,NR,3.0000
36,1,36,431.9161,-419.9149,WO,4,1,ROCKER,hot_spring,R,2.2240,NR,3.0000
37,1,37,443.9708,-431.9697,WI,4,2,CAGE,brewery,R,1.5931,NR,3.0000
38,1,38,456.0250,-444.0243,WI,2,1,DAMSEL,computer_room,UR,2.8249,NR,3.0000
39,1,39,468.0785,-456.0765,WO,4,2,ROCKER,hot_spring,R,1.8307,NR,3.0000
40,1,40,480.1342,-468.1331,WO,2,1,APPLE,putting_green,UR,2.6450,NR,3.0000
41,1,41,492.1884,-480.1865,WI,2,1,TOAST,ice_skating_rink,R,2.4957,NR,3.0000
42,1,42,504.2441,-492.2429,WO,2,1,MEDAL,ocean,NR,999.0000,R,4.6669
43,2,19,10.0014,1.9999,WO,2,1,RING,canal,R,2.0227,NR,3.0000
44,2,20,22.0635,-10.0613,WI,2,1,MEDICINE,beauty_salon,UR,2.5160,NR,3.0000
45,2,21,34.1246,-22.1224,WI,2,1,DOLL,train_station,UR,2.8557,NR,3.0000
46,2,22,46.1856,-34.1838,WI,2,1,SOCK,art_gallery,NR,999.0000,R,3.0228
47,2,23,58.2470,-46.2457,WO,4,1,SAXOPHONE,pond,R,1.7184,NR,3.0000
48,2,24,70.3074,-58.3056,WI,4,1,SCREWDRIVER,control_room,R,2.2123,NR,3.0000
49,2,25,82.3687,-70.3672,WO,2,1,ALLIGATOR,canyon,R,2.1776,NR,3.0000
50,2,26,94.4290,-82.4276,WO,4,1,SAIL,mausoleum,R,2.3352,NR,3.0000
51,2,27,106.4894,-94.4883,WO,2,1,TYPEWRITER,bridge,R,2.3760,NR,3.0000
52,2,28,118.5499,-106.5485,WI,4,1,HARPOON,candy_store,UR,2.6366,NR,3.0000
53,2,29,130.6104,-118.6092,WI,4,1,CHERRY,chicken_coop,R,2.6877,NR,3.0000
54,2,30,142.6713,-130.6697,WO,4,1,CLAM,harbor,R,1.9338,NR,3.0000
55,2,31,154.7319,-142.7297,WO,4,1,GARBAGE,rope_bridge,R,2.8575,NR,3.0000
56,2,32,166.7930,-154.7914,WO,4,1,CROWN,inn,R,2.9702,NR,3.0000
57,2,33,178.8540,-166.8532,WI,4,1,BUTTER,florist_shop,NR,999.0000,UR,5.1239
58,2,34,190.9138,-178.9125,WI,2,1,QUILL,laundromat,R,2.3795,NR,3.0000
59,2,35,202.9749,-190.9736,WO,4,2,SAXOPHONE,pond,R,1.5811,NR,3.0000
60,2,36,215.0352,-203.0341,WO,4,1,OPIUM,basilica,R,2.4605,NR,3.0000
61,2,37,227.0952,-215.0938,WI,4,1,LAMB,stage,NR,999.0000,UR,3.2538
62,2,38,239.1560,-227.1538,WI,4,2,CHERRY,chicken_coop,R,1.6144,NR,3.0000
63,2,39,251.2172,-239.2160,WO,2,1,SCORPION,bamboo_forest,NR,999.0000,R,3.1556
64,2,40,263.2774,-251.2760,WI,4,1,ELEPHANT,office,R,2.1340,NR,3.0000
65,2,41,275.3379,-263.3370,WI,4,2,BUTTER,florist_shop,UR,1.9513,NR,3.0000
66,2,42,287.3979,-275.3952,WO,2,1,TROPHY,park,R,2.5918,NR,3.0000
67,2,43,299.4598,-287.4587,WO,4,2,OPIUM,basilica,R,1.2756,NR,3.0000
68,2,44,311.5201,-299.5187,WI,4,1,ROCK,cockpit,NR,999.0000,R,5.5078
69,2,45,323.5811,-311.5791,WO,2,1,BONE,plaza,R,1.8714,NR,3.0000
70,2,46,335.6421,-323.6401,WO,4,2,SAIL,mausoleum,R,1.3239,NR,3.0000
71,2,47,347.7033,-335.7015,WI,4,2,LAMB,stage,R,2.9557,NR,3.0000
72,2,48,359.7644,-347.7631,WO,4,1,BAYONET,corral,UR,2.9563,NR,3.0000
73,2,49,371.8247,-359.8225,WO,4,2,CLAM,harbor,R,1.4623,NR,3.0000
74,2,50,383.8865,-371.8847,WI,2,1,ARROW,archive,R,2.0987,NR,3.0000
75,2,51,395.9473,-383.9456,WI,4,2,HARPOON,candy_store,UR,2.1553,NR,3.0000
76,2,52,408.0081,-396.0068,WO,4,2,GARBAGE,rope_bridge,R,2.1885,NR,3.0000
77,2,53,420.0694,-408.0676,WI,4,2,ROCK,cockpit,R,2.0374,NR,3.0000
78,2,54,432.1304,-420.1283,WO,4,2,CROWN,inn,R,1.5262,NR,3.0000
79,2,55,444.1923,-432.1914,WI,4,2,ELEPHANT,office,R,1.3201,NR,3.0000
80,2,56,456.2526,-444.2515,WO,4,2,BAYONET,corral,R,2.1826,NR,3.0000
81,2,57,468.3131,-456.3120,WI,2,1,BOOT,stable,R,2.2596,NR,3.0000
82,2,58,480.3740,-468.3726,WO,2,1,MAP,butte,R,2.3443,NR,3.0000
83,2,59,492.4347,-480.4324,WI,4,2,SCREWDRIVER,control_room,R,1.4427,NR,3.0000
84,2,60,504.4967,-492.4947,WI,2,1,WOLF,game_room,NR,999.0000,UR,3.0507
85,3,37,10.0016,1.9996,WO,4,1,HOOK,mountain,R,2.5264,NR,3.0000
86,3,38,22.0606,-10.0599,WI,2,1,SPONGE,ball_pit,NR,999.0000,R,5.0233
87,3,39,34.1180,-22.1173,WO,4,1,STOOL,desert,NR,999.0000,R,3.5461
88,3,40,188.8213,-176.8202,WI,2,1,TULIP,riding_arena,UR,2.6775,NR,3.0000
89,3,41,200.8798,-188.8791,WI,4,1,PIE,subway_interior,R,1.8222,NR,3.0000
90,3,42,212.9374,-200.9364,WO,4,1,TELEGRAPH,iceberg,UR,2.3698,NR,3.0000
91,3,43,224.9948,-212.9934,WI,4,1,DOVE,galley,R,2.5605,NR,3.0000
92,3,44,237.0526,-225.0514,WO,2,1,HAM,excavation,R,2.2375,NR,3.0000
93,3,45,249.1106,-237.1092,WI,4,1,SCROLL,casino,NR,999.0000,R,3.0384
94,3,46,261.1685,-249.1669,WI,4,1,HAMMER,cafeteria,UR,2.2742,NR,3.0000
95,3,47,273.2270,-261.2248,WO,4,1,BIBLE,picnic_area,NR,999.0000,R,4.7113
96,3,48,285.2855,-273.2844,WO,4,1,SOOT,cottage_garden,R,2.8508,NR,3.0000
97,3,49,297.3287,-285.3272,WI,4,1,NEEDLE,athletic_field,UR,2.6743,NR,3.0000
98,3,50,309.3902,-297.3885,WO,4,1,TRAY,amusement_park,R,2.8814,NR,3.0000
99,3,51,321.4484,-309.4466,WI,2,1,TABLE,television_studio,NR,999.0000,R,3.8030
100,3,52,333.5071,-321.5056,WO,4,2,STOOL,desert,UR,2.5996,NR,3.0000
101,3,53,345.5651,-333.5635,WI,4,1,FIDDLE,orchestra_pit,R,2.3843,NR,3.0000
102,3,54,357.6233,-345.6220,WI,2,1,CHICKEN,ballroom,R,2.8151,NR,3.0000
103,3,55,369.6813,-357.6793,WO,2,1,WRENCH,greenhouse,NR,999.0000,R,3.3915
104,3,56,381.7397,-369.7380,WO,2,1,FIRE,outhouse,R,2.2820,NR,3.0000
105,3,57,393.7985,-381.7972,WI,4,2,NEEDLE,athletic_field,UR,2.5374,NR,3.0000
106,3,58,405.8563,-393.8545,WI,4,2,SCROLL,casino,R,1.8974,NR,3.0000
107,3,59,417.9145,-405.9124,WI,2,1,OATMEAL,baggage_claim,NR,999.0000,UR,4.0128
108,3,60,429.9737,-417.9720,WO,2,1,CLARINET,amphitheater,R,2.9025,NR,3.0000
109,3,61,442.0319,-430.0301,WO,2,1,WHEAT,hill,R,2.3476,NR,3.0000
110,3,62,454.0909,-442.0889,WO,4,2,TRAY,amusement_park,R,1.6693,NR,3.0000
111,3,63,466.1495,-454.1481,WI,4,2,DOVE,galley,R,1.6418,NR,3.0000
112,3,64,478.2074,-466.2065,WI,4,2,PIE,subway_interior,R,2.4770,NR,3.0000
113,3,65,490.2656,-478.2642,WO,4,1,GLOBE,promenade_deck,R,2.3465,NR,3.0000
114,3,66,502.3234,-490.3214,WO,2,1,BEAVER,garbage_dump,R,2.6862,NR,3.0000
115,3,67,514.3826,-502.3817,WI,4,1,SCOOTER,boxing_ring,UR,2.9687,NR,3.0000
116,3,68,526.4402,-514.4386,WO,4,2,GLOBE,promenade_deck,R,1.2769,NR,3.0000
117,3,69,538.4985,-526.4962,WI,2,1,VIOLIN,shopping_mall,R,2.6141,NR,3.0000
118,3,70,550.5581,-538.5568,WO,4,2,SOOT,cottage_garden,R,2.5822,NR,3.0000
119,3,71,562.6161,-550.6150,WO,4,2,BIBLE,picnic_area,R,1.6766,NR,3.0000
120,3,72,574.6741,-562.6722,WI,2,1,POWDER,courtroom,UR,2.9109,NR,3.0000
121,3,73,586.7327,-574.7298,WO,4,2,HOOK,mountain,R,2.4655,NR,3.0000
122,3,74,598.7922,-586.7913,WO,2,1,SYRUP,kasbah,NR,999.0000,R,3.6965
123,3,75,610.8506,-598.8493,WI,4,2,SCOOTER,boxing_ring,UR,2.5750,NR,3.0000
124,3,76,622.9084,-610.9068,WO,4,2,TELEGRAPH,iceberg,UR,2.4520,NR,3.0000
125,3,77,634.9672,-622.9663,WI,4,2,HAMMER,cafeteria,NR,999.0000,UR,3.1592
126,3,78,647.0246,-635.0236,WI,4,2,FIDDLE,orchestra_pit,R,2.3100,NR,3.0000
127,4,55,10.0020,2.0000,WI,2,1,STORK,bar,NR,999.0000,R,3.2198
128,4,56,22.0618,-10.0606,WO,4,1,CAMEL,lift_bridge,R,2.6911,NR,3.0000
129,4,57,34.1187,-22.1172,WI,4,1,WINE,apse,R,2.0069,NR,3.0000
130,4,58,46.1761,-34.1739,WI,2,1,RASH,kitchenette,R,2.6054,NR,3.0000
131,4,59,58.2341,-46.2331,WO,4,1,FLASK,general_store,R,2.8178,NR,3.0000
132,4,60,70.2906,-58.2893,WO,2,1,OTTER,railroad_track,UR,2.3784,NR,3.0000
133,4,61,82.3477,-70.3461,WO,2,1,WALNUT,ice_floe,UR,2.8886,NR,3.0000
134,4,62,94.4050,-82.4037,WI,4,1,BASKET,jacuzzi,UR,2.8159,NR,3.0000
135,4,63,106.4625,-94.4615,WO,4,1,PEDAL,labyrinth,NR,999.0000,R,3.3111
136,4,64,118.5192,-106.5174,WI,4,1,CANDY,dorm_room,R,2.5721,NR,3.0000
137,4,65,130.5767,-118.5757,WI,2,1,EYE,catacomb,R,2.6212,NR,3.0000
138,4,66,142.6341,-130.6319,WO,4,1,CANNON,dock,NR,999.0000,R,3.6722
139,4,67,154.6921,-142.6905,WO,4,2,CANNON,dock,R,1.4456,NR,3.0000
140,4,68,166.7499,-154.7488,WI,4,1,MOTH,dentists_office,NR,999.0000,R,3.2657
141,4,69,178.8068,-166.8060,WI,4,1,SANDAL,optician,R,2.2108,NR,3.0000
142,4,70,190.8634,-178.8624,WO,4,1,DUST,oil_refinery,NR,999.0000,R,3.2069
143,4,71,202.9208,-190.9192,WI,4,1,SNAIL,volleyball_court,R,2.5928,NR,3.0000
144,4,72,214.9783,-202.9768,WI,4,2,BASKET,jacuzzi,UR,2.0433,NR,3.0000
145,4,73,227.0361,-215.0352,WI,4,2,CANDY,dorm_room,R,1.3629,NR,3.0000
146,4,74,239.0929,-227.0914,WO,2,1,ACROBAT,electrical_substation,R,2.5463,NR,3.0000
147,4,75,251.1502,-239.1491,WI,4,2,WINE,apse,R,1.6606,NR,3.0000
148,4,76,263.2077,-251.2068,WI,2,1,SLIPPER,swimming_pool,R,2.2741,NR,3.0000
149,4,77,275.2645,-263.2624,WO,4,1,TRIBE,ruin,R,2.2905,NR,3.0000
150,4,78,287.3230,-275.3207,WO,2,1,THONG,heliport,UR,2.7689,NR,3.0000
151,4,79,299.3811,-287.3790,WO,4,1,TOBACCO,phone_booth,R,2.5569,NR,3.0000
152,4,80,311.4389,-299.4378,WI,4,1,ANCHOR,burial_chamber,R,2.2196,NR,3.0000
153,4,81,323.4963,-311.4943,WO,2,1,SOAP,arch,UR,2.4909,NR,3.0000
154,4,82,335.5542,-323.5529,WO,2,1,LION,fishpond,R,2.4638,NR,3.0000
155,4,83,347.6122,-335.6105,WO,4,2,DUST,oil_refinery,NR,999.0000,R,3.0257
156,4,84,359.6697,-347.6688,WI,2,1,FROG,car_interior,NR,999.0000,R,3.3757
157,4,85,371.7265,-359.7256,WO,4,2,TOBACCO,phone_booth,R,1.2824,NR,3.0000
158,4,86,383.7840,-371.7826,WI,4,2,MOTH,dentists_office,R,1.7795,NR,3.0000
159,4,87,395.8413,-383.8405,WO,2,1,ASPARAGUS,power_plant,UR,2.8329,NR,3.0000
160,4,88,407.8987,-395.8972,WI,4,2,ANCHOR,burial_chamber,R,2.2047,NR,3.0000
161,4,89,419.9562,-407.9545,WO,4,2,CAMEL,lift_bridge,NR,999.0000,R,3.0324
162,4,90,432.0139,-420.0129,WO,4,2,FLASK,general_store,R,1.8647,NR,3.0000
163,4,91,444.0714,-432.0704,WI,4,2,SANDAL,optician,R,2.6254,NR,3.0000
164,4,92,456.1284,-444.1273,WI,2,1,VINE,limousine_interior,R,2.4925,NR,3.0000
165,4,93,468.1858,-456.1837,WO,4,2,PEDAL,labyrinth,R,1.9152,NR,3.0000
166,4,94,480.2440,-468.2426,WO,4,2,TRIBE,ruin,R,1.0856,NR,3.0000
167,4,95,492.3014,-480.3002,WI,2,1,WAND,airplane_cabin,R,2.5560,NR,3.0000
168,4,96,504.3592,-492.3575,WI,4,2,SNAIL,volleyball_court,R,1.8257,NR,3.0000
169,5,73,10.0026,1.9987,WO,4,1,RAKE,house,R,2.0600,NR,3.0000
170,5,74,22.0638,-10.0621,WI,4,1,SNOW,toyshop,R,2.4487,NR,3.0000
171,5,75,34.1234,-22.1211,WO,4,1,ACCORDIAN,hotel,NR,999.0000,UR,4.3098
172,5,76,46.1838,-34.1819,WI,4,2,SNOW,toyshop,R,1.6869,NR,3.0000
173,5,77,58.2442,-46.2430,WO,4,1,HAWK,boardwalk,R,2.6163,NR,3.0000
174,5,78,70.3035,-58.3019,WO,4,1,BOWL,campsite,R,2.5575,NR,3.0000
175,5,79,82.3638,-70.3624,WI,4,1,COFFEE,kindergarden_classroom,R,2.6647,NR,3.0000
176,5,80,94.4235,-82.4216,WO,4,1,RABBIT,badlands,R,2.4380,NR,3.0000
177,5,81,106.4841,-94.4820,WI,4,1,KALE,throne_room,NR,999.0000,UR,3.0284
178,5,82,118.5448,-106.5428,WO,2,1,LANTERN,boathouse,R,2.0994,NR,3.0000
179,5,83,130.6049,-118.6029,WO,4,2,BOWL,campsite,NR,999.0000,R,4.9449
180,5,84,142.6655,-130.6642,WI,4,1,CARROT,nursery,R,2.1198,NR,3.0000
181,5,85,154.7249,-142.7230,WI,2,1,MONKEY,badminton_court,R,1.8504,NR,3.0000
182,5,86,166.7851,-154.7831,WO,2,1,PANTS,rice_paddy,NR,999.0000,R,3.3570
183,5,87,178.8450,-166.8430,WI,4,2,KALE,throne_room,UR,2.0222,NR,3.0000
184,5,88,190.9054,-178.9038,WI,4,2,CARROT,nursery,R,1.2024,NR,3.0000
185,5,89,202.9658,-190.9635,WI,2,1,KEG,kennel,R,2.4483,NR,3.0000
186,5,90,215.0262,-203.0241,WO,4,2,RAKE,house,R,1.1525,NR,3.0000
187,5,91,227.0863,-215.0847,WI,2,1,BENCH,restaurant,UR,2.7139,NR,3.0000
188,5,92,239.1466,-227.1451,WI,4,1,GORILLA,clothing_store,R,2.3554,NR,3.0000
189,5,93,251.2061,-239.2042,WO,4,2,HAWK,boardwalk,R,1.2568,NR,3.0000
190,5,94,263.2660,-251.2644,WO,4,2,RABBIT,badlands,R,1.9984,NR,3.0000
191,5,95,275.3259,-263.3248,WO,2,1,SEAWEED,baseball_field,NR,999.0000,R,3.0956
192,5,96,287.3683,-275.3665,WI,4,2,COFFEE,kindergarden_classroom,R,1.8991,NR,3.0000
193,5,97,299.4156,-287.4145,WI,2,1,PIANO,drugstore,R,2.2088,NR,3.0000
194,5,98,311.4764,-299.4747,WI,2,1,RIFLE,sauna,UR,2.6085,NR,3.0000
195,5,99,323.5368,-311.5361,WO,4,1,ORNAMENT,beach,UR,2.7487,NR,3.0000
196,5,100,335.5959,-323.5945,WO,2,1,SPATULA,gazebo,UR,2.9232,NR,3.0000
197,5,101,347.6554,-335.6533,WI,4,1,ENVELOPE,bedroom,R,2.4882,NR,3.0000
198,5,102,359.7160,-347.7144,WO,2,1,QUARTER,boat_deck,R,2.5848,NR,3.0000
199,5,103,371.7758,-359.7742,WI,2,1,GOAT,synagogue,NR,999.0000,UR,4.1790
200,5,104,383.8362,-371.8340,WI,4,1,POSTER,bathroom,R,2.3808,NR,3.0000
201,5,105,395.8970,-383.8956,WO,4,2,ORNAMENT,beach,UR,1.7460,NR,3.0000
202,5,106,407.9568,-395.9554,WO,2,1,STAPLER,field_wild,NR,999.0000,R,3.5541
203,5,107,420.0170,-408.0150,WI,4,2,GORILLA,clothing_store,R,1.2638,NR,3.0000
204,5,108,432.0773,-420.0763,WI,2,1,CUCUMBER,cloister,UR,2.2284,NR,3.0000
205,5,109,444.1372,-432.1351,WI,4,2,ENVELOPE,bedroom,R,2.0979,NR,3.0000
206,5,110,456.1975,-444.1963,WO,4,2,ACCORDIAN,hotel,UR,2.5940,NR,3.0000
207,5,111,468.2572,-456.2564,WO,2,1,RICE,construction_site,R,2.5290,NR,3.0000
208,5,112,480.3166,-468.3155,WO,4,1,ICICLE,office_building,R,2.3191,NR,3.0000
209,5,113,492.3762,-480.3752,WI,4,2,POSTER,bathroom,R,1.9853,NR,3.0000
210,5,114,504.4362,-492.4347,WO,4,2,ICICLE,office_building,R,1.5011,NR,3.0000
211,6,91,10.0026,1.9995,WI,4,1,NIGHTGOWN,parking_garage,R,2.4812,NR,3.0000
212,6,92,22.0674,-10.0665,WI,4,2,NIGHTGOWN,parking_garage,R,2.1550,NR,3.0000
213,6,93,34.1295,-22.1279,WO,2,1,BARREL,beach,UR,2.6713,NR,3.0000
214,6,94,46.1916,-34.1897,WI,4,1,OMELET,jewelry_shop,NR,999.0000,UR,3.0060
215,6,95,58.2541,-46.2533,WO,2,1,QUAIL,formal_garden,R,2.3651,NR,3.0000
216,6,96,70.3162,-58.3142,WO,4,1,BLANKET,orchard,R,2.1388,NR,3.0000
217,6,97,82.3787,-70.3764,WI,2,1,DRUG,lobby,R,2.4095,NR,3.0000
218,6,98,94.4423,-82.4413,WI,4,1,NET,dining_room,UR,2.6584,NR,3.0000
219,6,99,106.5040,-94.5022,WO,4,1,CANDLE,rock_arch,R,2.8373,NR,3.0000
220,6,100,118.5666,-106.5657,WO,4,1,CLOAK,pasture,R,2.7598,NR,3.0000
221,6,101,130.6288,-118.6271,WI,4,1,ANT,squash_court,NR,999.0000,UR,4.3640
222,6,102,142.6913,-130.6900,WO,2,1,SALAD,field_cultivated,R,2.3107,NR,3.0000
223,6,103,154.7550,-142.7531,WI,2,1,ORANGE,childs_room,R,2.8476,NR,3.0000
224,6,104,166.8178,-154.8169,WO,4,1,HOSE,aqueduct,R,2.5800,NR,3.0000
225,6,105,178.8793,-166.8775,WO,4,1,PAN,mountain_snowy,NR,999.0000,R,3.4468
226,6,106,190.9424,-178.9406,WI,2,1,DESK,home_office,R,2.3555,NR,3.0000
227,6,107,203.0050,-191.0029,WO,4,1,SHEEP,landing_deck,UR,2.6969,NR,3.0000
228,6,108,215.0679,-203.0656,WO,4,2,HOSE,aqueduct,R,2.3739,NR,3.0000
229,6,109,227.1321,-215.1299,WO,2,1,NEST,crevasse,NR,999.0000,UR,3.0757
230,6,110,239.1951,-227.1944,WI,4,1,HONEY,music_studio,UR,2.8825,NR,3.0000
231,6,111,251.2567,-239.2552,WI,4,2,ANT,squash_court,UR,1.7015,NR,3.0000
232,6,112,263.3190,-251.3171,WO,4,2,CLOAK,pasture,R,1.0229,NR,3.0000
233,6,113,275.3821,-263.3813,WO,4,2,CANDLE,rock_arch,NR,999.0000,R,3.5184
234,6,114,287.4437,-275.4419,WI,4,2,NET,dining_room,UR,2.0862,NR,3.0000
235,6,115,299.5064,-287.5054,WI,4,1,POTATO,biology_laboratory,R,1.9709,NR,3.0000
236,6,116,311.5688,-299.5681,WO,4,1,RUDDER,hayfield,NR,999.0000,UR,3.2221
237,6,117,323.6304,-311.6287,WI,4,2,OMELET,jewelry_shop,UR,1.8250,NR,3.0000
238,6,118,335.6935,-323.6922,WI,4,2,POTATO,biology_laboratory,R,1.1621,NR,3.0000
239,6,119,347.7557,-335.7544,WI,2,1,BROOM,shoe_shop,R,2.7998,NR,3.0000
240,6,120,359.8181,-347.8163,WO,4,2,SHEEP,landing_deck,UR,2.1723,NR,3.0000
241,6,121,371.8630,-359.8607,WI,2,1,PASTE,supermarket,R,2.3603,NR,3.0000
242,6,122,383.9294,-371.9282,WO,4,2,BLANKET,orchard,R,1.6289,NR,3.0000
243,6,123,395.9917,-383.9894,WI,2,1,JACKET,bakery,R,2.2649,NR,3.0000
244,6,124,408.0560,-396.0546,WO,2,1,PUDDLE,cliff,R,2.5883,NR,3.0000
245,6,125,420.1184,-408.1167,WI,2,1,HATCHET,elevator,UR,2.4003,NR,3.0000
246,6,126,432.1816,-420.1785,WI,4,2,HONEY,music_studio,UR,1.5890,NR,3.0000
247,6,127,444.2458,-432.2448,WO,2,1,WITCH,driving_range,NR,999.0000,UR,3.2130
248,6,128,456.3077,-444.3061,WI,4,1,PYTHON,movie_theater,R,2.9131,NR,3.0000
249,6,129,468.3709,-456.3698,WO,4,2,PAN,mountain_snowy,R,2.1160,NR,3.0000
250,6,130,480.4331,-468.4304,WO,2,1,TWEEZERS,marsh,R,2.8933,NR,3.0000
251,6,131,492.4974,-480.4959,WI,4,2,PYTHON,movie_theater,R,1.7756,NR,3.0000
252,6,132,504.5600,-492.5588,WO,4,2,RUDDER,hayfield,UR,2.1191,NR,3.0000
253,7,109,10.0021,1.9998,WI,2,2,TURTLE,garage,R,1.7505,NR,3.0000
254,7,110,22.0652,-10.0634,WO,2,2,APPLE,putting_green,R,2.7427,NR,3.0000
255,7,111,34.1266,-22.1257,WI,2,2,DAMSEL,computer_room,NR,999.0000,UR,3.6654
256,7,112,46.1867,-34.1852,WI,2,2,TOAST,ice_skating_rink,UR,2.6250,NR,3.0000
257,7,113,58.2471,-46.2452,WO,4,3,FAN,dam,R,2.4215,NR,3.0000
258,7,114,70.3080,-58.3068,WO,4,3,KILT,islet,NR,999.0000,R,3.6225
259,7,115,82.3682,-70.3664,WO,4,3,SARDINE,raceway,R,1.8690,NR,3.0000
260,7,116,94.4295,-82.4274,WI,4,3,LETTUCE,bookstore,R,1.3251,NR,3.0000
261,7,117,106.4905,-94.4895,WI,4,3,SCAB,lecture_room,R,1.6193,NR,3.0000
262,7,118,118.5508,-106.5498,WO,2,2,CHOCOLATE,chalet,R,1.3004,NR,3.0000
263,7,119,130.6115,-118.6100,WI,4,3,CAGE,brewery,R,1.3990,NR,3.0000
264,7,120,142.6721,-130.6712,WO,4,3,VODKA,oilrig,R,1.0927,NR,3.0000
265,7,121,154.7324,-142.7316,WI,2,2,LIME,theater,UR,2.2105,NR,3.0000
266,7,122,166.7924,-154.7905,WI,4,4,SCAB,lecture_room,R,1.2017,NR,3.0000
267,7,123,178.8533,-166.8515,WO,4,3,MANURE,corn_field,R,2.1579,NR,3.0000
268,7,124,190.9142,-178.9134,WI,4,3,WORM,closet,R,1.8839,NR,3.0000
269,7,125,202.9739,-190.9727,WO,4,3,ROCKER,hot_spring,R,1.6944,NR,3.0000
270,7,126,215.0348,-203.0326,WO,2,2,ZIPPER,cabin,UR,2.5581,NR,3.0000
271,7,127,227.0960,-215.0950,WO,4,4,KILT,islet,R,1.6006,NR,3.0000
272,7,128,239.1562,-227.1549,WI,4,3,NOODLE,escalator,UR,2.2142,NR,3.0000
273,7,129,251.2171,-239.2162,WO,4,4,SARDINE,raceway,R,1.4137,NR,3.0000
274,7,130,263.2771,-251.2757,WI,4,4,NOODLE,escalator,NR,999.0000,UR,3.2094
275,7,131,275.3382,-263.3365,WO,4,4,FAN,dam,R,1.3465,NR,3.0000
276,7,132,287.3989,-275.3980,WO,4,3,DRUM,lido_deck,R,1.4713,NR,3.0000
277,7,133,299.4587,-287.4577,WO,4,4,VODKA,oilrig,R,1.9911,NR,3.0000
278,7,134,311.5193,-299.5180,WI,4,4,LETTUCE,bookstore,R,1.1229,NR,3.0000
279,7,135,323.5797,-311.5786,WI,4,3,OWL,natural_history_museum,R,2.5455,NR,3.0000
280,7,136,335.6407,-323.6392,WO,2,2,MEDAL,ocean,R,1.8975,NR,3.0000
281,7,137,347.7013,-335.6995,WO,4,4,MANURE,corn_field,R,1.7390,NR,3.0000
282,7,138,359.7623,-347.7613,WI,4,3,DETECTIVE,banquet_hall,NR,999.0000,R,3.1890
283,7,139,371.8233,-359.8213,WI,2,2,QUILT,cubicle,UR,2.8980,NR,3.0000
284,7,140,383.8843,-371.8833,WO,4,4,DRUM,lido_deck,R,1.2397,NR,3.0000
285,7,141,395.9451,-383.9435,WI,4,4,WORM,closet,R,1.1343,NR,3.0000
286,7,142,408.0058,-396.0044,WI,4,4,CAGE,brewery,R,2.2966,NR,3.0000
287,7,143,420.0665,-408.0649,WO,2,2,DOUGHNUT,motel,R,2.2767,NR,3.0000
288,7,144,432.1275,-420.1260,WO,2,2,CORAL,herb_garden,R,2.2402,NR,3.0000
289,7,145,444.1916,-432.1896,WI,2,2,MUFFIN,bazaar,R,2.5826,NR,3.0000
290,7,146,456.2535,-444.2527,WO,4,4,ROCKER,hot_spring,R,1.2806,NR,3.0000
291,7,147,468.3136,-456.3127,WI,2,2,DIAMOND,pulpit,R,2.1536,UR,8.0056
292,7,148,480.3741,-468.3721,WI,4,4,OWL,natural_history_museum,R,0.9758,NR,3.0000
293,7,149,492.4359,-480.4338,WI,4,4,DETECTIVE,banquet_hall,R,1.1389,NR,3.0000
294,7,150,504.4972,-492.4953,WO,2,2,SUBMARINE,pavilion,R,2.2193,NR,3.0000
295,8,127,10.0033,1.9983,WO,2,2,MAP,butte,R,2.1404,NR,3.0000
296,8,128,22.0697,-10.0685,WI,4,3,BUTTER,florist_shop,UR,2.2779,NR,3.0000
297,8,129,34.1328,-22.1318,WO,4,3,SAIL,mausoleum,UR,1.8589,NR,3.0000
298,8,130,46.1955,-34.1947,WO,4,3,CLAM,harbor,R,1.1713,NR,3.0000
299,8,131,58.2575,-46.2561,WO,2,2,ALLIGATOR,canyon,R,1.6629,NR,3.0000
300,8,132,70.3207,-58.3197,WI,4,3,HARPOON,candy_store,NR,999.0000,UR,4.0782
301,8,133,82.3828,-70.3818,WI,4,3,ROCK,cockpit,R,1.6646,NR,3.0000
302,8,134,94.4451,-82.4443,WI,4,3,SCREWDRIVER,control_room,R,2.1052,NR,3.0000
303,8,135,106.5074,-94.5064,WO,4,3,CROWN,inn,R,1.0985,NR,3.0000
304,8,136,118.5697,-106.5684,WO,2,2,TYPEWRITER,bridge,R,2.0919,NR,3.0000
305,8,137,130.6328,-118.6310,WI,4,3,ELEPHANT,office,R,1.5816,NR,3.0000
306,8,138,142.6958,-130.6945,WO,2,2,BONE,plaza,R,1.5276,NR,3.0000
307,8,139,154.7582,-142.7566,WO,4,4,CLAM,harbor,R,1.0761,NR,3.0000
308,8,140,166.8211,-154.8194,WI,2,2,MEDICINE,beauty_salon,R,1.6436,NR,3.0000
309,8,141,178.8839,-166.8818,WI,4,3,LAMB,stage,R,1.7616,NR,3.0000
310,8,142,190.9477,-178.9460,WO,4,3,GARBAGE,rope_bridge,R,2.3548,NR,3.0000
311,8,143,203.0108,-191.0083,WO,4,3,OPIUM,basilica,R,1.6835,NR,3.0000
312,8,144,215.0746,-203.0727,WO,4,4,OPIUM,basilica,R,1.2652,NR,3.0000
313,8,145,227.1384,-215.1374,WI,4,4,ROCK,cockpit,R,1.1636,NR,3.0000
314,8,146,239.2008,-227.1996,WO,4,3,SAXOPHONE,pond,NR,999.0000,R,3.8193
315,8,147,251.2638,-239.2622,WO,4,3,BAYONET,corral,R,1.1807,NR,3.0000
316,8,148,263.3268,-251.3246,WI,4,4,ELEPHANT,office,R,1.3702,NR,3.0000
317,8,149,275.3903,-263.3892,WI,2,2,SOCK,art_gallery,NR,999.0000,R,3.1041
318,8,150,287.4532,-275.4525,WI,4,3,CHERRY,chicken_coop,R,2.1430,NR,3.0000
319,8,151,299.5152,-287.5142,WO,4,4,GARBAGE,rope_bridge,R,1.3263,NR,3.0000
320,8,152,311.5776,-299.5764,WI,2,2,BOOT,stable,R,1.5661,NR,3.0000
321,8,153,323.6401,-311.6378,WO,4,4,SAIL,mausoleum,R,1.5277,NR,3.0000
322,8,154,335.7037,-323.7022,WI,4,4,CHERRY,chicken_coop,R,1.7698,NR,3.0000
323,8,155,347.7671,-335.7662,WI,2,2,QUILL,laundromat,R,2.2014,NR,3.0000
324,8,156,359.8293,-347.8272,WO,2,2,RING,canal,R,1.7575,NR,3.0000
325,8,157,371.8932,-359.8914,WI,4,4,SCREWDRIVER,control_room,R,1.2194,NR,3.0000
326,8,158,383.9563,-371.9546,WO,4,4,BAYONET,corral,R,1.0779,NR,3.0000
327,8,159,396.0196,-384.0185,WI,2,2,DOLL,train_station,UR,2.5717,NR,3.0000
328,8,160,408.0826,-396.0812,WO,2,2,SCORPION,bamboo_forest,R,2.7084,NR,3.0000
329,8,161,420.1454,-408.1432,WI,4,4,BUTTER,florist_shop,R,2.1943,NR,3.0000
330,8,162,432.2095,-420.2079,WI,4,4,LAMB,stage,R,1.1922,NR,3.0000
331,8,163,444.2724,-432.2708,WO,2,2,TROPHY,park,R,2.5700,NR,3.0000
332,8,164,456.3355,-444.3347,WI,2,2,ARROW,archive,R,1.4788,NR,3.0000
333,8,165,468.3952,-456.3936,WO,4,4,SAXOPHONE,pond,R,1.3604,NR,3.0000
334,8,166,480.4584,-468.4569,WI,4,4,HARPOON,candy_store,UR,2.2258,NR,3.0000
335,8,167,492.5218,-480.5202,WI,2,2,WOLF,game_room,NR,999.0000,UR,3.4271
336,8,168,504.5847,-492.5832,WO,4,4,CROWN,inn,R,1.1037,NR,3.0000
337,9,145,10.0024,1.9994,WO,4,3,GLOBE,promenade_deck,R,1.5206,NR,3.0000
338,9,146,22.0717,-10.0710,WI,4,3,SCROLL,casino,R,1.1886,NR,3.0000
339,9,147,34.1368,-22.1351,WO,4,3,TELEGRAPH,iceberg,R,1.6809,NR,3.0000
340,9,148,46.2027,-34.2012,WI,4,4,SCROLL,casino,R,0.8967,NR,3.0000
341,9,149,58.2691,-46.2678,WI,4,3,FIDDLE,orchestra_pit,R,1.1837,NR,3.0000
342,9,150,70.3348,-58.3338,WI,2,2,SPONGE,ball_pit,R,2.0838,NR,3.0000
343,9,151,82.4003,-70.3986,WO,4,3,STOOL,desert,UR,2.2903,NR,3.0000
344,9,152,94.4664,-82.4652,WO,4,4,GLOBE,promenade_deck,R,1.1867,NR,3.0000
345,9,153,106.5321,-94.5299,WI,4,3,HAMMER,cafeteria,NR,999.0000,R,3.5793
346,9,154,118.5991,-106.5975,WO,2,2,WHEAT,hill,R,1.6039,NR,3.0000
347,9,155,130.6651,-118.6630,WI,2,2,VIOLIN,shopping_mall,R,1.2323,NR,3.0000
348,9,156,142.7321,-130.7300,WI,4,3,DOVE,galley,NR,999.0000,R,3.1860
349,9,157,154.7989,-142.7976,WI,2,2,TABLE,television_studio,R,1.6691,NR,3.0000
350,9,158,166.8645,-154.8623,WO,2,2,WRENCH,greenhouse,R,1.5129,NR,3.0000
351,9,159,178.9318,-166.9302,WO,4,3,TRAY,amusement_park,R,2.2780,NR,3.0000
352,9,160,190.9977,-178.9956,WI,2,2,OATMEAL,baggage_claim,UR,2.5499,R,7.5998
353,9,161,203.0648,-191.0635,WO,4,3,BIBLE,picnic_area,R,1.4708,NR,3.0000
354,9,162,215.1305,-203.1286,WO,2,2,CLARINET,amphitheater,R,1.9685,NR,3.0000
355,9,163,227.1968,-215.1961,WI,4,3,NEEDLE,athletic_field,NR,999.0000,UR,3.4453
356,9,164,239.2626,-227.2611,WI,4,4,FIDDLE,orchestra_pit,R,1.2668,NR,3.0000
357,9,165,251.3285,-239.3278,WO,4,4,STOOL,desert,UR,1.2480,NR,3.0000
358,9,166,263.3943,-251.3924,WI,4,4,DOVE,galley,R,1.1973,NR,3.0000
359,9,167,275.4610,-263.4600,WO,4,3,HOOK,mountain,R,2.3113,NR,3.0000
360,9,168,287.5264,-275.5251,WI,4,4,HAMMER,cafeteria,R,2.0801,NR,3.0000
361,9,169,299.5927,-287.5896,WO,4,4,TRAY,amusement_park,NR,999.0000,NR,3.0000
362,9,170,311.6606,-299.6594,WI,2,2,CHICKEN,ballroom,R,1.2241,NR,3.0000
363,9,171,323.7268,-311.7254,WO,2,2,HAM,excavation,NR,999.0000,UR,3.8962
364,9,172,335.7928,-323.7918,WI,2,2,TULIP,riding_arena,UR,2.4756,NR,3.0000
365,9,173,347.8585,-335.8571,WO,4,4,HOOK,mountain,R,1.2802,NR,3.0000
366,9,174,359.9249,-347.9230,WI,4,3,PIE,subway_interior,R,2.1111,NR,3.0000
367,9,175,371.9913,-359.9906,WO,4,3,SOOT,cottage_garden,NR,999.0000,R,3.2306
368,9,176,384.0569,-372.0559,WO,4,4,SOOT,cottage_garden,R,1.4444,NR,3.0000
369,9,177,396.1227,-384.1217,WO,2,2,BEAVER,garbage_dump,R,2.0325,NR,3.0000
370,9,178,408.1884,-396.1877,WI,4,3,SCOOTER,boxing_ring,UR,2.1366,NR,3.0000
371,9,179,420.2538,-408.2526,WO,2,2,SYRUP,kasbah,R,1.7911,NR,3.0000
372,9,180,432.3196,-420.3188,WO,4,4,BIBLE,picnic_area,R,1.4245,NR,3.0000
373,9,181,444.3857,-432.3847,WO,4,4,TELEGRAPH,iceberg,R,2.8507,NR,3.0000
374,9,182,456.4516,-444.4497,WI,4,4,SCOOTER,boxing_ring,R,2.4499,UR,4.7965
375,9,183,468.5181,-456.5170,WI,4,4,NEEDLE,athletic_field,UR,2.6425,NR,3.0000
376,9,184,480.5846,-468.5828,WO,2,2,FIRE,outhouse,R,1.5541,NR,3.0000
377,9,185,492.6510,-480.6493,WI,2,2,POWDER,courtroom,R,2.2168,NR,3.0000
378,9,186,504.7181,-492.7171,WI,4,4,PIE,subway_interior,R,1.6555,NR,3.0000
379,10,163,10.0030,1.9988,WI,2,2,WAND,airplane_cabin,R,1.9129,NR,3.0000
380,10,164,22.0739,-10.0715,WI,4,3,BASKET,jacuzzi,UR,2.3233,NR,3.0000
381,10,165,34.1280,-22.1261,WO,4,3,DUST,oil_refinery,R,2.8526,NR,3.0000
382,10,166,46.1966,-34.1949,WI,4,3,WINE,apse,R,2.4974,R,11.2897
383,10,167,58.2641,-46.2618,WO,2,2,WALNUT,ice_floe,R,2.1870,NR,3.0000
384,10,168,70.3321,-58.3308,WO,2,2,ASPARAGUS,power_plant,UR,2.4975,NR,3.0000
385,10,169,82.3996,-70.3966,WI,4,3,MOTH,dentists_office,R,2.0684,NR,3.0000
386,10,170,94.4680,-82.4669,WI,4,3,ANCHOR,burial_chamber,R,1.7035,NR,3.0000
387,10,171,106.5353,-94.5339,WO,2,2,SOAP,arch,UR,1.7043,NR,3.0000
388,10,172,118.6023,-106.6015,WO,4,3,FLASK,general_store,R,1.1874,NR,3.0000
389,10,173,130.6688,-118.6677,WI,2,2,FROG,car_interior,R,2.1080,NR,3.0000
390,10,174,142.7357,-130.7342,WO,4,3,TRIBE,ruin,R,1.7729,NR,3.0000
391,10,175,154.8029,-142.8019,WO,2,2,ACROBAT,electrical_substation,R,1.2667,NR,3.0000
392,10,176,166.8700,-154.8683,WI,4,4,ANCHOR,burial_chamber,R,1.4957,NR,3.0000
393,10,177,178.9374,-166.9355,WI,4,3,SANDAL,optician,R,1.7771,NR,3.0000
394,10,178,191.0051,-179.0035,WO,4,4,FLASK,general_store,R,1.1380,NR,3.0000
395,10,179,203.0726,-191.0717,WI,4,3,SNAIL,volleyball_court,R,1.3490,NR,3.0000
396,10,180,215.1394,-203.1375,WI,4,3,CANDY,dorm_room,R,1.1041,NR,3.0000
397,10,181,227.2077,-215.2062,WO,4,3,CAMEL,lift_bridge,R,1.2026,NR,3.0000
398,10,182,239.2749,-227.2736,WO,4,3,TOBACCO,phone_booth,R,1.2186,NR,3.0000
399,10,183,251.3421,-239.3403,WI,2,2,STORK,bar,R,1.9943,NR,3.0000
400,10,184,263.4103,-251.4088,WO,4,3,PEDAL,labyrinth,R,1.2603,NR,3.0000
401,10,185,275.4776,-263.4762,WI,2,2,VINE,limousine_interior,R,1.6221,NR,3.0000
402,10,186,287.5453,-275.5445,WO,4,4,TRIBE,ruin,R,1.2549,NR,3.0000
403,10,187,299.6119,-287.6103,WO,2,2,THONG,heliport,R,0.6005,NR,3.0000
404,10,188,311.6794,-299.6781,WI,4,4,WINE,apse,R,1.7603,NR,3.0000
405,10,189,323.7470,-311.7443,WI,2,2,EYE,catacomb,R,1.1260,NR,3.0000
406,10,190,335.8156,-323.8139,WO,4,4,DUST,oil_refinery,R,1.0341,NR,3.0000
407,10,191,347.8839,-335.8823,WO,4,3,CANNON,dock,R,1.8261,NR,3.0000
408,10,192,359.9513,-347.9504,WI,4,4,SNAIL,volleyball_court,R,1.0753,NR,3.0000
409,10,193,372.0181,-360.0164,WI,4,4,MOTH,dentists_office,R,1.0649,NR,3.0000
410,10,194,384.0863,-372.0852,WO,2,2,OTTER,railroad_track,UR,1.8647,NR,3.0000
411,10,195,396.1533,-384.1518,WO,4,4,PEDAL,labyrinth,R,0.9961,NR,3.0000
412,10,196,408.2214,-396.2200,WI,4,4,CANDY,dorm_room,R,0.8822,NR,3.0000
413,10,197,420.2886,-408.2872,WI,2,2,SLIPPER,swimming_pool,R,1.7191,NR,3.0000
414,10,198,432.3557,-420.3540,WO,4,4,CAMEL,lift_bridge,R,1.0502,NR,3.0000
415,10,199,444.4239,-432.4228,WO,4,4,CANNON,dock,R,1.1785,NR,3.0000
416,10,200,456.4911,-444.4898,WI,4,4,SANDAL,optician,R,1.3981,NR,3.0000
417,10,201,468.5590,-456.5574,WO,2,2,LION,fishpond,R,2.1574,NR,3.0000
418,10,202,480.6266,-468.6244,WI,2,2,RASH,kitchenette,R,2.0474,NR,3.0000
419,10,203,492.6949,-480.6926,WO,4,4,TOBACCO,phone_booth,R,1.0357,NR,3.0000
420,10,204,504.7638,-492.7623,WI,4,4,BASKET,jacuzzi,UR,1.6832,NR,3.0000
421,11,181,10.0033,1.9983,WO,2,2,RICE,construction_site,R,1.5985,NR,3.0000
422,11,182,22.0742,-10.0728,WI,4,3,SNOW,toyshop,NR,999.0000,R,3.2791
423,11,183,34.1421,-22.1405,WI,2,2,BENCH,restaurant,UR,1.7759,NR,3.0000
424,11,184,46.2099,-34.2087,WO,2,2,LANTERN,boathouse,R,1.8732,NR,3.0000
425,11,185,58.2772,-46.2752,WI,4,3,GORILLA,clothing_store,NR,999.0000,R,3.6209
426,11,186,70.3453,-58.3439,WO,4,3,HAWK,boardwalk,R,1.0681,NR,3.0000
427,11,187,82.4129,-70.4114,WO,2,2,PANTS,rice_paddy,NR,999.0000,R,3.5689
428,11,188,94.4813,-82.4802,WO,4,3,BOWL,campsite,R,1.2749,NR,3.0000
429,11,189,106.5484,-94.5467,WI,2,2,MONKEY,badminton_court,R,1.5489,NR,3.0000
430,11,190,118.6166,-106.6148,WI,4,3,CARROT,nursery,R,1.3907,NR,3.0000
431,11,191,130.6848,-118.6835,WI,4,3,COFFEE,kindergarden_classroom,R,1.2539,NR,3.0000
432,11,192,142.7524,-130.7512,WO,4,3,ICICLE,office_building,R,1.2042,NR,3.0000
433,11,193,154.8198,-142.8177,WO,4,4,ICICLE,office_building,R,1.2734,NR,3.0000
434,11,194,166.8880,-154.8873,WO,4,3,RAKE,house,R,1.6616,NR,3.0000
435,11,195,178.9553,-166.9546,WI,4,3,KALE,throne_room,R,2.0764,NR,3.0000
436,11,196,191.0222,-179.0204,WI,2,2,RIFLE,sauna,UR,2.3134,NR,3.0000
437,11,197,203.0902,-191.0894,WO,2,2,STAPLER,field_wild,R,2.2255,NR,3.0000
438,11,198,215.1572,-203.1559,WO,4,3,ACCORDIAN,hotel,NR,999.0000,UR,3.0908
439,11,199,227.2248,-215.2232,WO,4,4,HAWK,boardwalk,R,1.1700,NR,3.0000
440,11,200,239.2933,-227.2924,WI,4,4,COFFEE,kindergarden_classroom,R,0.8425,NR,3.0000
441,11,201,251.3606,-239.3589,WI,4,3,POSTER,bathroom,R,1.1989,NR,3.0000
442,11,202,263.4286,-251.4278,WO,4,4,RAKE,house,R,2.1269,NR,3.0000
443,11,203,275.4963,-263.4953,WO,4,3,RABBIT,badlands,R,1.5989,NR,3.0000
444,11,204,287.5637,-275.5615,WI,2,2,KEG,kennel,R,2.2513,NR,3.0000
445,11,205,299.6328,-287.6309,WI,4,3,ENVELOPE,bedroom,R,1.8567,NR,3.0000
446,11,206,311.7011,-299.6996,WI,4,4,KALE,throne_room,R,1.0448,NR,3.0000
447,11,207,323.7696,-311.7677,WO,4,3,ORNAMENT,beach,UR,1.9220,NR,3.0000
448,11,208,335.8380,-323.8369,WI,2,2,GOAT,synagogue,R,1.9782,NR,3.0000
449,11,209,347.9053,-335.9039,WI,4,4,GORILLA,clothing_store,NR,999.0000,R,3.4296
450,11,210,359.9737,-347.9727,WO,2,2,SPATULA,gazebo,UR,2.4638,NR,3.0000
451,11,211,372.0410,-360.0394,WO,2,2,QUARTER,boat_deck,R,2.1260,NR,3.0000
452,11,212,384.1095,-372.1077,WO,4,4,ORNAMENT,beach,UR,1.5597,NR,3.0000
453,11,213,396.1777,-384.1770,WI,4,4,ENVELOPE,bedroom,R,1.2424,NR,3.0000
454,11,214,408.2448,-396.2418,WI,4,4,CARROT,nursery,R,1.1141,NR,3.0000
455,11,215,420.3150,-408.3135,WI,4,4,SNOW,toyshop,NR,999.0000,R,4.0655
456,11,216,432.3829,-420.3815,WO,4,4,BOWL,campsite,R,1.6056,NR,3.0000
457,11,217,444.4513,-432.4504,WO,2,2,SEAWEED,baseball_field,UR,2.8789,NR,3.0000
458,11,218,456.5185,-444.5166,WO,4,4,ACCORDIAN,hotel,UR,1.8295,NR,3.0000
459,11,219,468.5871,-456.5854,WI,2,2,CUCUMBER,cloister,UR,2.1288,NR,3.0000
460,11,220,480.6557,-468.6541,WI,4,4,POSTER,bathroom,R,1.5329,NR,3.0000
461,11,221,492.7238,-480.7221,WI,2,2,PIANO,drugstore,R,1.9253,NR,3.0000
462,11,222,504.7923,-492.7914,WO,4,4,RABBIT,badlands,R,1.2939,NR,3.0000
463,12,199,10.0041,1.9971,WI,4,3,HONEY,music_studio,UR,2.3855,NR,3.0000
464,12,200,22.0734,-10.0717,WO,4,3,CLOAK,pasture,R,1.0227,NR,3.0000
465,12,201,34.1414,-22.1401,WO,4,3,RUDDER,hayfield,NR,999.0000,UR,3.0095
466,12,202,46.2080,-34.2062,WI,2,2,BROOM,shoe_shop,R,2.4200,NR,3.0000
467,12,203,58.2754,-46.2739,WI,4,3,PYTHON,movie_theater,R,2.4790,NR,3.0000
468,12,204,70.3422,-58.3390,WO,4,4,RUDDER,hayfield,UR,1.2498,NR,3.0000
469,12,205,82.4107,-70.4085,WI,4,3,POTATO,biology_laboratory,R,2.8881,NR,3.0000
470,12,206,94.4788,-82.4769,WO,2,2,BARREL,beach,UR,2.9512,NR,3.0000
471,12,207,106.5462,-94.5443,WI,4,4,HONEY,music_studio,UR,2.5974,NR,3.0000
472,12,208,118.6140,-106.6132,WO,4,3,BLANKET,orchard,NR,999.0000,R,5.3488
473,12,209,130.6804,-118.6787,WO,4,3,HOSE,aqueduct,R,2.0613,NR,3.0000
474,12,210,142.7477,-130.7457,WO,4,3,PAN,mountain_snowy,R,2.1900,NR,3.0000
475,12,211,154.8158,-142.8145,WI,2,2,ORANGE,childs_room,R,1.8993,NR,3.0000
476,12,212,166.8825,-154.8806,WI,4,3,NET,dining_room,UR,1.6152,NR,3.0000
477,12,213,178.9503,-166.9494,WI,2,2,HATCHET,elevator,UR,2.4872,NR,3.0000
478,12,214,191.0169,-179.0148,WO,4,3,CANDLE,rock_arch,R,2.1075,NR,3.0000
479,12,215,203.0844,-191.0822,WI,2,2,JACKET,bakery,R,2.0776,NR,3.0000
480,12,216,215.1528,-203.1513,WI,4,4,POTATO,biology_laboratory,R,1.8419,NR,3.0000
481,12,217,227.2197,-215.2184,WO,2,2,QUAIL,formal_garden,R,1.4857,NR,3.0000
482,12,218,239.2872,-227.2853,WI,4,4,PYTHON,movie_theater,R,1.5430,NR,3.0000
483,12,219,251.3545,-239.3537,WI,2,2,PASTE,supermarket,R,2.1762,NR,3.0000
484,12,220,263.4209,-251.4200,WI,4,3,NIGHTGOWN,parking_garage,R,2.3128,NR,3.0000
485,12,221,275.4877,-263.4863,WO,2,2,TWEEZERS,marsh,NR,999.0000,UR,4.0878
486,12,222,287.5561,-275.5541,WI,4,3,OMELET,jewelry_shop,UR,1.6317,NR,3.0000
487,12,223,299.6242,-287.6224,WI,4,3,ANT,squash_court,UR,2.4584,NR,3.0000
488,12,224,311.6915,-299.6901,WO,4,4,CLOAK,pasture,R,1.4270,NR,3.0000
489,12,225,323.7585,-311.7574,WO,2,2,SALAD,field_cultivated,R,1.9142,NR,3.0000
490,12,226,335.8258,-323.8243,WO,2,2,WITCH,driving_range,UR,2.5324,NR,3.0000
491,12,227,347.8930,-335.8916,WI,4,4,OMELET,jewelry_shop,NR,999.0000,UR,3.1062
492,12,228,359.9608,-347.9590,WO,4,3,SHEEP,landing_deck,R,2.5323,NR,3.0000
493,12,229,372.0282,-360.0260,WO,2,2,PUDDLE,cliff,R,2.3064,NR,3.0000
494,12,230,384.0962,-372.0940,WI,2,2,DRUG,lobby,R,2.3216,NR,3.0000
495,12,231,396.1645,-384.1637,WI,4,4,NIGHTGOWN,parking_garage,R,2.0313,NR,3.0000
496,12,232,408.2307,-396.2285,WI,4,4,ANT,squash_court,UR,2.4296,NR,3.0000
497,12,233,420.2991,-408.2982,WO,4,4,PAN,mountain_snowy,R,1.4199,NR,3.0000
498,12,234,432.3657,-420.3648,WI,2,2,DESK,home_office,R,2.4015,NR,3.0000
499,12,235,444.4322,-432.4301,WO,4,4,BLANKET,orchard,R,1.2252,NR,3.0000
500,12,236,456.5006,-444.4985,WO,2,2,NEST,crevasse,R,1.9014,NR,3.0000
501,12,237,468.5684,-456.5672,WI,4,4,NET,dining_room,UR,1.6350,NR,3.0000
502,12,238,480.6357,-468.6347,WO,4,4,CANDLE,rock_arch,R,1.0232,NR,3.0000
503,12,239,492.7024,-480.7015,WO,4,4,HOSE,aqueduct,R,1.1206,NR,3.0000
504,12,240,504.7690,-492.7672,WO,4,4,SHEEP,landing_deck,R,1.2132,NR,3.0000
