,run,trial,onset,duration,cond,subcond,resp,acc,respRT,subid,group,duration_adj,onset_adj
0,1,1,12.0068,1.4946,object,manmade,manmade,1,0.8153,loc100,control,0.4946,0.0068
1,1,2,13.9136,1.0869,object,manmade,manmade,1,0.8784,loc100,control,0.0869,1.9136
2,1,3,15.029,1.4716,object,natural,natural,1,0.6792,loc100,control,0.4716,3.029
3,1,4,16.5293,1.4712,object,manmade,manmade,1,0.6867,loc100,control,0.4712,4.5293
4,1,5,18.0304,1.4701,object,natural,natural,1,0.5906,loc100,control,0.4701,6.0304
5,1,6,19.5308,1.47,object,natural,natural,1,0.3726,loc100,control,0.47,7.5308
6,1,7,21.0319,1.4686,object,manmade,manmade,1,0.5161,loc100,control,0.4686,9.0319
7,1,8,22.5321,1.4683,object,manmade,manmade,1,0.5143,loc100,control,0.4683,10.5321
8,1,9,24.0324,1.4688,object,natural,natural,1,0.411,loc100,control,0.4688,12.0324
9,1,10,25.5345,1.4665,object,natural,manmade,0,0.5462,loc100,control,0.4665,13.5345
11,1,12,37.5486,1.4529,face,female,female,1,0.5439,loc100,control,0.4529,25.5486
12,1,13,39.0508,1.4493,face,male,male,1,0.4022,loc100,control,0.4493,27.0508
13,1,14,40.5353,1.4662,face,female,female,1,0.4125,loc100,control,0.4662,28.5353
14,1,15,42.0369,1.4632,face,male,male,1,0.4059,loc100,control,0.4632,30.0369
15,1,16,43.5367,1.4645,face,female,female,1,0.4516,loc100,control,0.4645,31.5367
16,1,17,45.0373,1.4635,face,male,male,1,0.556,loc100,control,0.4635,33.0373
17,1,18,46.5379,1.4626,face,male,male,1,0.4522,loc100,control,0.4626,34.5379
18,1,19,48.0387,1.4615,face,female,female,1,0.5134,loc100,control,0.4615,36.0387
19,1,20,49.5387,1.4616,face,male,male,1,0.5633,loc100,control,0.4616,37.5387
20,1,21,51.0396,1.4618,face,female,female,1,0.3376,loc100,control,0.4618,39.0396
22,1,23,63.0589,1.4421,object,manmade,natural,0,0.6524,loc100,control,0.4421,51.0589
23,1,24,64.5593,1.4417,object,manmade,manmade,1,0.6945,loc100,control,0.4417,52.5593
24,1,25,66.0429,1.4576,object,manmade,natural,0,0.4359,loc100,control,0.4576,54.0429
25,1,26,67.5418,1.4591,object,natural,natural,1,0.5198,loc100,control,0.4591,55.5418
26,1,27,69.0439,1.4569,object,natural,natural,1,0.6203,loc100,control,0.4569,57.0439
27,1,28,70.5436,1.4576,object,manmade,manmade,1,0.5865,loc100,control,0.4576,58.5436
28,1,29,72.0456,1.4558,object,manmade,natural,0,0.5129,loc100,control,0.4558,60.0456
29,1,30,73.5455,1.4552,object,natural,natural,1,0.4071,loc100,control,0.4552,61.5455
30,1,31,75.0457,1.4552,object,natural,natural,1,0.5033,loc100,control,0.4552,63.0457
31,1,32,76.5464,1.4547,object,natural,natural,1,0.6639,loc100,control,0.4547,64.5464
33,1,34,88.569,1.4329,face,female,female,1,0.6189,loc100,control,0.4329,76.569
34,1,35,90.0698,1.4311,face,male,male,1,0.366,loc100,control,0.4311,78.0698
35,1,36,91.5488,1.4525,face,male,male,1,0.5135,loc100,control,0.4525,79.5488
36,1,37,93.0492,1.4514,face,female,female,1,0.4233,loc100,control,0.4514,81.0492
37,1,38,94.5492,1.452,face,male,male,1,0.3939,loc100,control,0.452,82.5492
38,1,39,96.0503,1.4508,face,female,female,1,0.3941,loc100,control,0.4508,84.0503
39,1,40,97.5516,1.4485,face,female,male,0,0.3959,loc100,control,0.4485,85.5516
40,1,41,99.0503,1.4502,face,male,male,1,0.6946,loc100,control,0.4502,87.0503
41,1,42,100.552,1.449,face,female,female,1,0.6366,loc100,control,0.449,88.552
42,1,43,102.0536,1.4476,face,male,male,1,0.4254,loc100,control,0.4476,90.0536
44,1,45,114.0783,1.4228,face,male,male,1,0.5882,loc100,control,0.4228,102.0783
45,1,46,115.5794,1.4223,face,male,female,0,0.3422,loc100,control,0.4223,103.5794
46,1,47,117.0571,1.4436,face,female,female,1,0.359,loc100,control,0.4436,105.0571
47,1,48,118.555,1.4452,face,female,NR,0,999.5,loc100,control,0.4452,106.555
48,1,49,120.0559,1.4444,face,male,male,1,0.5228,loc100,control,0.4444,108.0559
49,1,50,121.5567,1.444,face,female,female,1,0.744,loc100,control,0.444,109.5567
50,1,51,123.0576,1.4426,face,female,female,1,0.4055,loc100,control,0.4426,111.0576
51,1,52,124.5572,1.4434,face,female,female,1,0.5247,loc100,control,0.4434,112.5572
52,1,53,126.0594,1.4414,face,male,NR,0,999.5,loc100,control,0.4414,114.0594
53,1,54,127.559,1.4423,face,male,NR,0,999.5,loc100,control,0.4423,115.559
55,1,56,139.5873,1.413,object,natural,natural,1,0.7863,loc100,control,0.413,127.5873
56,1,57,141.0879,1.4133,object,natural,manmade,0,0.1016,loc100,control,0.4133,129.0879
57,1,58,142.5629,1.4378,object,manmade,natural,0,0.5932,loc100,control,0.4378,130.5629
58,1,59,144.0623,1.4381,object,manmade,manmade,1,0.6301,loc100,control,0.4381,132.0623
59,1,60,145.5631,1.4373,object,manmade,manmade,1,0.5961,loc100,control,0.4373,133.5631
60,1,61,147.0626,1.4381,object,natural,NR,0,999.5,loc100,control,0.4381,135.0626
61,1,62,148.5643,1.436,object,natural,natural,1,0.5132,loc100,control,0.436,136.5643
62,1,63,150.065,1.4352,object,natural,natural,1,0.4145,loc100,control,0.4352,138.065
63,1,64,151.5654,1.4354,object,manmade,manmade,1,0.6984,loc100,control,0.4354,139.5654
64,1,65,153.0663,1.4343,object,manmade,manmade,1,0.5872,loc100,control,0.4343,141.0663
66,1,67,165.0967,1.404,place,indoor,indoor,1,0.721,loc100,control,0.404,153.0967
67,1,68,166.5976,1.4044,place,outdoor,indoor,0,0.5382,loc100,control,0.4044,154.5976
68,1,69,168.0705,1.4304,place,indoor,indoor,1,0.3871,loc100,control,0.4304,156.0705
69,1,70,169.5683,1.4331,place,outdoor,outdoor,1,0.6802,loc100,control,0.4331,157.5683
70,1,71,171.0706,1.4298,place,indoor,indoor,1,0.6097,loc100,control,0.4298,159.0706
71,1,72,172.5699,1.4304,place,outdoor,outdoor,1,0.3399,loc100,control,0.4304,160.5699
72,1,73,174.0701,1.4304,place,indoor,indoor,1,0.5097,loc100,control,0.4304,162.0701
73,1,74,175.5715,1.4299,place,outdoor,outdoor,1,0.3905,loc100,control,0.4299,163.5715
74,1,75,177.0734,1.4281,place,indoor,indoor,1,0.6337,loc100,control,0.4281,165.0734
75,1,76,178.573,1.4276,place,outdoor,outdoor,1,0.6283,loc100,control,0.4276,166.573
77,1,78,190.6061,1.3956,place,outdoor,outdoor,1,0.7322,loc100,control,0.3956,178.6061
78,1,79,192.1081,1.3923,place,outdoor,outdoor,1,0.7076,loc100,control,0.3923,180.1081
79,1,80,193.5748,1.4258,place,indoor,indoor,1,0.5689,loc100,control,0.4258,181.5748
80,1,81,195.0757,1.425,place,indoor,indoor,1,0.3535,loc100,control,0.425,183.0757
81,1,82,196.5759,1.4253,place,indoor,indoor,1,0.5047,loc100,control,0.4253,184.5759
82,1,83,198.0772,1.4236,place,indoor,indoor,1,0.4114,loc100,control,0.4236,186.0772
83,1,84,199.5771,1.4241,place,indoor,indoor,1,0.3822,loc100,control,0.4241,187.5771
84,1,85,201.0782,1.4227,place,outdoor,outdoor,1,0.8695,loc100,control,0.4227,189.0782
85,1,86,202.578,1.4231,place,outdoor,outdoor,1,0.6675,loc100,control,0.4231,190.578
86,1,87,204.0801,1.4212,place,outdoor,outdoor,1,0.4079,loc100,control,0.4212,192.0801
88,1,89,216.1159,1.3862,object,natural,natural,1,0.641,loc100,control,0.3862,204.1159
89,1,90,217.6182,1.3826,object,manmade,natural,0,0.5148,loc100,control,0.3826,205.6182
90,1,91,219.0815,1.4186,object,manmade,natural,0,0.3962,loc100,control,0.4186,207.0815
91,1,92,220.5803,1.4201,object,manmade,natural,0,0.5601,loc100,control,0.4201,208.5803
92,1,93,222.0821,1.4188,object,natural,natural,1,0.3551,loc100,control,0.4188,210.0821
93,1,94,223.5821,1.4181,object,manmade,manmade,1,0.5989,loc100,control,0.4181,211.5821
94,1,95,225.0828,1.4179,object,natural,NR,0,999.5,loc100,control,0.4179,213.0828
95,1,96,226.5837,1.4174,object,natural,natural,1,0.3624,loc100,control,0.4174,214.5837
96,1,97,228.0847,1.4161,object,natural,natural,1,0.3553,loc100,control,0.4161,216.0847
97,1,98,229.5848,1.4162,object,manmade,manmade,1,0.7091,loc100,control,0.4162,217.5848
99,1,100,241.6259,1.3753,place,indoor,outdoor,0,0.9147,loc100,control,0.3753,229.6259
100,1,101,243.1269,1.3746,place,indoor,outdoor,0,0.5487,loc100,control,0.3746,231.1269
101,1,102,244.5885,1.4117,place,indoor,NR,0,999.5,loc100,control,0.4117,232.5885
102,1,103,246.088,1.4129,place,indoor,indoor,1,0.5429,loc100,control,0.4129,234.088
103,1,104,247.5886,1.4123,place,outdoor,indoor,0,0.6139,loc100,control,0.4123,235.5886
104,1,105,249.0897,1.4111,place,outdoor,outdoor,1,0.8117,loc100,control,0.4111,237.0897
105,1,106,250.5905,1.4101,place,outdoor,outdoor,1,0.5817,loc100,control,0.4101,238.5905
106,1,107,252.0911,1.4095,place,outdoor,outdoor,1,0.5682,loc100,control,0.4095,240.0911
107,1,108,253.5915,1.4097,place,outdoor,outdoor,1,0.3467,loc100,control,0.4097,241.5915
108,1,109,255.0916,1.4098,place,indoor,outdoor,0,0.3329,loc100,control,0.4098,243.0916
110,1,111,267.1354,1.3652,face,male,male,1,0.6562,loc100,control,0.3652,255.1354
111,1,112,268.6358,1.3653,face,male,male,1,0.6378,loc100,control,0.3653,256.6358
112,1,113,270.0947,1.4065,face,male,male,1,0.5662,loc100,control,0.4065,258.0947
113,1,114,271.5953,1.4056,face,female,female,1,0.3792,loc100,control,0.4056,259.5953
114,1,115,273.0954,1.4046,face,female,female,1,0.5795,loc100,control,0.4046,261.0954
115,1,116,274.5949,1.406,face,male,male,1,0.5532,loc100,control,0.406,262.5949
116,1,117,276.0962,1.4046,face,female,female,1,0.3978,loc100,control,0.4046,264.0962
117,1,118,277.5966,1.4046,face,male,male,1,0.5183,loc100,control,0.4046,265.5966
118,1,119,279.0983,1.4031,face,female,female,1,0.617,loc100,control,0.4031,267.0983
119,1,120,280.5996,1.4011,face,female,female,1,0.6229,loc100,control,0.4011,268.5996
121,1,122,292.6453,1.3565,place,indoor,indoor,1,0.7003,loc100,control,0.3565,280.6453
122,1,123,294.1466,1.3538,place,outdoor,outdoor,1,0.7504,loc100,control,0.3538,282.1466
123,1,124,295.6025,1.3983,place,indoor,indoor,1,0.5646,loc100,control,0.3983,283.6025
124,1,125,297.1016,1.3989,place,indoor,outdoor,0,0.6009,loc100,control,0.3989,285.1016
125,1,126,298.6015,1.3986,place,indoor,indoor,1,0.7405,loc100,control,0.3986,286.6015
126,1,127,300.1012,1.3995,place,outdoor,outdoor,1,0.5827,loc100,control,0.3995,288.1012
127,1,128,301.604,1.3962,place,outdoor,outdoor,1,0.7564,loc100,control,0.3962,289.604
128,1,129,303.1034,1.397,place,outdoor,indoor,0,0.7604,loc100,control,0.397,291.1034
129,1,130,304.6041,1.3964,place,outdoor,indoor,0,0.5584,loc100,control,0.3964,292.6041
130,1,131,306.1044,1.3967,place,indoor,indoor,1,0.5076,loc100,control,0.3967,294.1044
132,2,1,12.0028,1.4982,face,male,male,1,0.6146,loc100,control,0.4982,0.0028
133,2,2,13.6661,1.3348,face,female,female,1,0.5479,loc100,control,0.3348,1.6661
134,2,3,15.1082,1.3922,face,male,male,1,0.5062,loc100,control,0.3922,3.1082
135,2,4,16.6084,1.3921,face,female,female,1,0.5648,loc100,control,0.3921,4.6084
136,2,5,18.1091,1.3919,face,male,male,1,0.3864,loc100,control,0.3919,6.1091
137,2,6,19.6095,1.3908,face,female,female,1,0.3747,loc100,control,0.3908,7.6095
138,2,7,21.1093,1.3912,face,male,NR,0,999.5,loc100,control,0.3912,9.1093
139,2,8,22.6109,1.3897,face,male,male,1,0.5902,loc100,control,0.3897,10.6109
140,2,9,24.1111,1.3891,face,female,female,1,0.369,loc100,control,0.3891,12.1111
141,2,10,25.6118,1.3892,face,female,female,1,0.3201,loc100,control,0.3892,13.6118
143,2,12,37.666,1.336,object,natural,natural,1,0.6929,loc100,control,0.336,25.666
144,2,13,39.1669,1.3334,object,manmade,manmade,1,0.6735,loc100,control,0.3334,27.1669
145,2,14,40.6661,1.3343,object,manmade,manmade,1,0.7356,loc100,control,0.3343,28.6661
146,2,15,42.1154,1.3858,object,manmade,manmade,1,0.6581,loc100,control,0.3858,30.1154
147,2,16,43.6178,1.3832,object,natural,natural,1,0.6064,loc100,control,0.3832,31.6178
148,2,17,45.1166,1.3846,object,natural,natural,1,0.7742,loc100,control,0.3846,33.1166
149,2,18,46.6185,1.3823,object,manmade,manmade,1,0.545,loc100,control,0.3823,34.6185
150,2,19,48.1177,1.3829,object,natural,natural,1,0.5425,loc100,control,0.3829,36.1177
151,2,20,49.6183,1.3825,object,manmade,manmade,1,0.5604,loc100,control,0.3825,37.6183
152,2,21,51.119,1.3817,object,natural,natural,1,0.5386,loc100,control,0.3817,39.119
154,2,23,63.1744,1.3258,place,indoor,indoor,1,0.6634,loc100,control,0.3258,51.1744
155,2,24,64.6746,1.3275,place,outdoor,outdoor,1,0.6209,loc100,control,0.3275,52.6746
156,2,25,66.178,1.3231,place,indoor,indoor,1,0.6335,loc100,control,0.3231,54.178
157,2,26,67.6214,1.3791,place,indoor,outdoor,0,0.6897,loc100,control,0.3791,55.6214
158,2,27,69.1228,1.3776,place,indoor,indoor,1,0.6939,loc100,control,0.3776,57.1228
159,2,28,70.6225,1.3788,place,indoor,indoor,1,0.5724,loc100,control,0.3788,58.6225
160,2,29,72.1234,1.3769,place,outdoor,outdoor,1,0.7545,loc100,control,0.3769,60.1234
161,2,30,73.6237,1.377,place,outdoor,outdoor,1,0.6575,loc100,control,0.377,61.6237
162,2,31,75.1247,1.3767,place,outdoor,outdoor,1,0.6864,loc100,control,0.3767,63.1247
163,2,32,76.6269,1.3742,place,outdoor,outdoor,1,0.6789,loc100,control,0.3742,64.6269
165,2,34,88.6836,1.3169,object,natural,natural,1,0.7268,loc100,control,0.3169,76.6836
166,2,35,90.185,1.3161,object,manmade,natural,0,0.5306,loc100,control,0.3161,78.185
167,2,36,91.6864,1.315,object,manmade,natural,0,0.5859,loc100,control,0.315,79.6864
168,2,37,93.128,1.3734,object,natural,natural,1,0.5398,loc100,control,0.3734,81.128
169,2,38,94.6295,1.3711,object,manmade,manmade,1,0.5938,loc100,control,0.3711,82.6295
170,2,39,96.1301,1.3709,object,manmade,manmade,1,0.6192,loc100,control,0.3709,84.1301
171,2,40,97.6294,1.3707,object,natural,natural,1,0.5167,loc100,control,0.3707,85.6294
172,2,41,99.1294,1.3708,object,natural,natural,1,0.5575,loc100,control,0.3708,87.1294
173,2,42,100.6301,1.3709,object,natural,manmade,0,0.5381,loc100,control,0.3709,88.6301
174,2,43,102.1326,1.3675,object,manmade,manmade,1,0.6574,loc100,control,0.3675,90.1326
176,2,45,114.1941,1.3064,face,male,male,1,0.728,loc100,control,0.3064,102.1941
177,2,46,115.6943,1.3069,face,male,male,1,0.6295,loc100,control,0.3069,103.6943
178,2,47,117.1956,1.3056,face,female,female,1,0.7436,loc100,control,0.3056,105.1956
179,2,48,118.6361,1.3647,face,female,female,1,0.5699,loc100,control,0.3647,106.6361
180,2,49,120.1352,1.3658,face,female,female,1,0.5964,loc100,control,0.3658,108.1352
181,2,50,121.6355,1.3651,face,male,male,1,0.52,loc100,control,0.3651,109.6355
182,2,51,123.1373,1.3635,face,female,female,1,0.5725,loc100,control,0.3635,111.1373
183,2,52,124.6362,1.3645,face,female,female,1,0.5034,loc100,control,0.3645,112.6362
184,2,53,126.1374,1.364,face,male,male,1,0.5333,loc100,control,0.364,114.1374
185,2,54,127.6386,1.3617,face,male,male,1,0.5672,loc100,control,0.3617,115.6386
187,2,56,139.7039,1.2968,place,outdoor,NR,0,999.5,loc100,control,0.2968,127.7039
188,2,57,141.2044,1.2957,place,indoor,indoor,1,1.1451,loc100,control,0.2957,129.2044
189,2,58,142.7044,1.297,place,outdoor,outdoor,1,0.7397,loc100,control,0.297,130.7044
190,2,59,144.141,1.3594,place,indoor,indoor,1,0.6328,loc100,control,0.3594,132.141
191,2,60,145.6412,1.3592,place,indoor,indoor,1,0.7405,loc100,control,0.3592,133.6412
192,2,61,147.1418,1.3588,place,outdoor,outdoor,1,0.5449,loc100,control,0.3588,135.1418
193,2,62,148.6419,1.3584,place,indoor,indoor,1,0.2614,loc100,control,0.3584,136.6419
194,2,63,150.1421,1.3589,place,indoor,outdoor,0,0.2946,loc100,control,0.3589,138.1421
195,2,64,151.645,1.3553,place,outdoor,indoor,0,0.7276,loc100,control,0.3553,139.645
196,2,65,153.1447,1.3563,place,outdoor,indoor,0,0.5406,loc100,control,0.3563,141.1447
198,2,67,165.2132,1.2887,place,indoor,indoor,1,0.7564,loc100,control,0.2887,153.2132
199,2,68,166.7161,1.2844,place,outdoor,outdoor,1,0.6483,loc100,control,0.2844,154.7161
200,2,69,168.2141,1.2865,place,outdoor,outdoor,1,0.6032,loc100,control,0.2865,156.2141
201,2,70,169.646,1.3554,place,indoor,indoor,1,0.6508,loc100,control,0.3554,157.646
202,2,71,171.1477,1.3532,place,indoor,indoor,1,0.8735,loc100,control,0.3532,159.1477
203,2,72,172.6479,1.3535,place,outdoor,outdoor,1,0.5611,loc100,control,0.3535,160.6479
204,2,73,174.1504,1.3505,place,outdoor,indoor,0,0.6351,loc100,control,0.3505,162.1504
205,2,74,175.6507,1.35,place,indoor,indoor,1,0.7799,loc100,control,0.35,163.6507
206,2,75,177.1496,1.3509,place,outdoor,outdoor,1,0.6073,loc100,control,0.3509,165.1496
207,2,76,178.6502,1.3511,place,indoor,indoor,1,0.5088,loc100,control,0.3511,166.6502
209,2,78,190.7225,1.279,face,male,male,1,0.7613,loc100,control,0.279,178.7225
210,2,79,192.2241,1.2761,face,male,male,1,0.6898,loc100,control,0.2761,180.2241
211,2,80,193.7237,1.2777,face,female,female,1,0.6023,loc100,control,0.2777,181.7237
212,2,81,195.1542,1.3466,face,female,female,1,0.8428,loc100,control,0.3466,183.1542
213,2,82,196.6563,1.345,face,male,male,1,0.5607,loc100,control,0.345,184.6563
214,2,83,198.1545,1.3467,face,male,male,1,0.5461,loc100,control,0.3467,186.1545
215,2,84,199.655,1.3459,face,female,female,1,0.5914,loc100,control,0.3459,187.655
216,2,85,201.157,1.3442,face,male,male,1,0.6485,loc100,control,0.3442,189.157
217,2,86,202.6581,1.3431,face,female,male,0,0.637,loc100,control,0.3431,190.6581
218,2,87,204.1583,1.3422,face,female,female,1,0.6244,loc100,control,0.3422,192.1583
220,2,89,216.2325,1.2687,place,outdoor,NR,0,999.5,loc100,control,0.2687,204.2325
221,2,90,217.7332,1.267,place,indoor,outdoor,0,0.6828,loc100,control,0.267,205.7332
222,2,91,219.2334,1.2675,place,indoor,indoor,1,0.775,loc100,control,0.2675,207.2334
223,2,92,220.6593,1.3408,place,outdoor,outdoor,1,0.6531,loc100,control,0.3408,208.6593
224,2,93,222.1605,1.3402,place,indoor,indoor,1,0.697,loc100,control,0.3402,210.1605
225,2,94,223.6616,1.3397,place,outdoor,outdoor,1,0.6523,loc100,control,0.3397,211.6616
226,2,95,225.1627,1.3382,place,outdoor,outdoor,1,0.548,loc100,control,0.3382,213.1627
227,2,96,226.6636,1.3367,place,indoor,indoor,1,0.5985,loc100,control,0.3367,214.6636
228,2,97,228.1634,1.3371,place,outdoor,outdoor,1,0.712,loc100,control,0.3371,216.1634
229,2,98,229.6627,1.338,place,indoor,indoor,1,0.6698,loc100,control,0.338,217.6627
231,2,100,241.7412,1.26,object,manmade,natural,0,0.8373,loc100,control,0.26,229.7412
232,2,101,243.2434,1.2579,object,natural,natural,1,0.6186,loc100,control,0.2579,231.2434
233,2,102,244.7433,1.2579,object,manmade,manmade,1,0.6327,loc100,control,0.2579,232.7433
234,2,103,246.166,1.3345,object,natural,natural,1,0.5584,loc100,control,0.3345,234.166
235,2,104,247.6667,1.3344,object,natural,natural,1,0.5558,loc100,control,0.3344,235.6667
236,2,105,249.1683,1.3328,object,natural,natural,1,0.5255,loc100,control,0.3328,237.1683
237,2,106,250.6695,1.3311,object,natural,natural,1,0.6796,loc100,control,0.3311,238.6695
238,2,107,252.1688,1.3312,object,manmade,manmade,1,0.5585,loc100,control,0.3312,240.1688
239,2,108,253.6684,1.3327,object,manmade,natural,0,0.5583,loc100,control,0.3327,241.6684
240,2,109,255.1711,1.3298,object,manmade,manmade,1,0.6325,loc100,control,0.3298,243.1711
242,2,111,267.2507,1.2502,face,male,male,1,0.7711,loc100,control,0.2502,255.2507
243,2,112,268.7517,1.2489,face,female,female,1,0.6392,loc100,control,0.2489,256.7517
244,2,113,270.2521,1.248,face,female,female,1,0.7256,loc100,control,0.248,258.2521
245,2,114,271.6736,1.327,face,male,male,1,0.6905,loc100,control,0.327,259.6736
246,2,115,273.1732,1.3272,face,female,female,1,0.7703,loc100,control,0.3272,261.1732
247,2,116,274.6733,1.3278,face,male,male,1,0.6707,loc100,control,0.3278,262.6733
248,2,117,276.1755,1.3259,face,female,female,1,0.7588,loc100,control,0.3259,264.1755
249,2,118,277.6757,1.3256,face,male,male,1,0.6067,loc100,control,0.3256,265.6757
250,2,119,279.1782,1.3227,face,male,male,1,0.8223,loc100,control,0.3227,267.1782
251,2,120,280.6775,1.3235,face,female,female,1,0.5981,loc100,control,0.3235,268.6775
253,2,122,292.7612,1.2388,object,manmade,manmade,1,0.8222,loc100,control,0.2388,280.7612
254,2,123,294.2611,1.2404,object,manmade,manmade,1,0.7452,loc100,control,0.2404,282.2611
255,2,124,295.7625,1.238,object,manmade,manmade,1,0.6859,loc100,control,0.238,283.7625
256,2,125,297.1803,1.321,object,natural,natural,1,0.6029,loc100,control,0.321,285.1803
257,2,126,298.6803,1.3203,object,natural,natural,1,0.6241,loc100,control,0.3203,286.6803
258,2,127,300.1813,1.3197,object,natural,manmade,0,0.6045,loc100,control,0.3197,288.1813
259,2,128,301.6815,1.3186,object,manmade,manmade,1,0.815,loc100,control,0.3186,289.6815
260,2,129,303.1809,1.3198,object,natural,natural,1,0.6047,loc100,control,0.3198,291.1809
261,2,130,304.6836,1.3175,object,natural,manmade,0,0.595,loc100,control,0.3175,292.6836
262,2,131,306.1847,1.3158,object,manmade,manmade,1,0.6999,loc100,control,0.3158,294.1847
264,1,1,12.003,1.4992,object,natural,NR,0,999.5,loc101,control,0.4992,0.003
265,1,2,13.9381,1.0631,object,natural,NR,0,999.5,loc101,control,0.0631,1.9381
266,1,3,15.0306,1.4696,object,natural,natural,1,0.3503,loc101,control,0.4696,3.0306
267,1,4,16.5319,1.469,object,natural,natural,1,0.5711,loc101,control,0.469,4.5319
268,1,5,18.0327,1.4682,object,manmade,manmade,1,0.4345,loc101,control,0.4682,6.0327
269,1,6,19.5333,1.4673,object,manmade,manmade,1,0.5482,loc101,control,0.4673,7.5333
270,1,7,21.0337,1.4675,object,natural,natural,1,0.7936,loc101,control,0.4675,9.0337
271,1,8,22.5349,1.4662,object,manmade,manmade,1,0.5135,loc101,control,0.4662,10.5349
272,1,9,24.0355,1.4658,object,manmade,manmade,1,0.6044,loc101,control,0.4658,12.0355
273,1,10,25.5366,1.4648,object,manmade,natural,0,0.6224,loc101,control,0.4648,13.5366
275,1,12,37.5514,1.4499,object,manmade,manmade,1,0.6603,loc101,control,0.4499,25.5514
276,1,13,39.0529,1.4473,object,manmade,manmade,1,0.4273,loc101,control,0.4473,27.0529
277,1,14,40.5373,1.4636,object,natural,manmade,0,0.2065,loc101,control,0.4636,28.5373
278,1,15,42.038,1.4633,object,natural,manmade,0,0.3939,loc101,control,0.4633,30.038
279,1,16,43.5399,1.4613,object,natural,natural,1,0.4165,loc101,control,0.4613,31.5399
280,1,17,45.0402,1.4611,object,natural,natural,1,0.36,loc101,control,0.4611,33.0402
281,1,18,46.5409,1.4599,object,manmade,manmade,1,0.5743,loc101,control,0.4599,34.5409
282,1,19,48.0407,1.4594,object,manmade,natural,0,0.4149,loc101,control,0.4594,36.0407
283,1,20,49.5407,1.4606,object,natural,natural,1,0.436,loc101,control,0.4606,37.5407
284,1,21,51.0434,1.457,object,manmade,manmade,1,0.5091,loc101,control,0.457,39.0434
286,1,23,63.0603,1.4405,face,female,female,1,0.5253,loc101,control,0.4405,51.0603
287,1,24,64.562,1.4397,face,female,female,1,0.4001,loc101,control,0.4397,52.562
288,1,25,66.0452,1.4561,face,male,male,1,0.3749,loc101,control,0.4561,54.0452
289,1,26,67.5454,1.4557,face,female,female,1,0.3669,loc101,control,0.4557,55.5454
290,1,27,69.0454,1.4552,face,male,male,1,0.4327,loc101,control,0.4552,57.0454
291,1,28,70.5454,1.456,face,male,NR,0,999.5,loc101,control,0.456,58.5454
292,1,29,72.0471,1.4535,face,female,female,1,0.4158,loc101,control,0.4535,60.0471
293,1,30,73.5469,1.4541,face,male,male,1,0.4072,loc101,control,0.4541,61.5469
294,1,31,75.0479,1.4533,face,female,male,0,0.3436,loc101,control,0.4533,63.0479
295,1,32,76.5498,1.4508,face,male,male,1,0.4299,loc101,control,0.4508,64.5498
297,1,34,88.5705,1.4297,object,natural,manmade,0,0.9701,loc101,control,0.4297,76.5705
298,1,35,90.0709,1.4306,object,natural,manmade,0,0.6162,loc101,control,0.4306,78.0709
299,1,36,91.5517,1.4492,object,manmade,manmade,1,0.5312,loc101,control,0.4492,79.5517
300,1,37,93.0511,1.4495,object,manmade,manmade,1,0.4039,loc101,control,0.4495,81.0511
301,1,38,94.5519,1.449,object,natural,natural,1,0.3439,loc101,control,0.449,82.5519
302,1,39,96.0523,1.4489,object,natural,NR,0,999.5,loc101,control,0.4489,84.0523
303,1,40,97.554,1.4463,object,manmade,manmade,1,0.5112,loc101,control,0.4463,85.554
304,1,41,99.0528,1.4479,object,manmade,manmade,1,0.6539,loc101,control,0.4479,87.0528
305,1,42,100.5548,1.4455,object,manmade,NR,0,999.5,loc101,control,0.4455,88.5548
306,1,43,102.0545,1.4465,object,natural,natural,1,0.3187,loc101,control,0.4465,90.0545
308,1,45,114.0812,1.4207,place,outdoor,indoor,0,0.8616,loc101,control,0.4207,102.0812
309,1,46,115.5819,1.4184,place,outdoor,indoor,0,0.6887,loc101,control,0.4184,103.5819
310,1,47,117.0577,1.4431,place,indoor,indoor,1,0.6293,loc101,control,0.4431,105.0577
311,1,48,118.5576,1.4433,place,indoor,indoor,1,0.5404,loc101,control,0.4433,106.5576
312,1,49,120.0585,1.4425,place,indoor,indoor,1,0.5882,loc101,control,0.4425,108.0585
313,1,50,121.5591,1.4417,place,outdoor,outdoor,1,0.5712,loc101,control,0.4417,109.5591
314,1,51,123.0598,1.4403,place,indoor,indoor,1,0.5375,loc101,control,0.4403,111.0598
315,1,52,124.56,1.4404,place,outdoor,outdoor,1,0.3822,loc101,control,0.4404,112.56
316,1,53,126.0603,1.4406,place,outdoor,indoor,0,0.3647,loc101,control,0.4406,114.0603
317,1,54,127.5619,1.4384,place,indoor,indoor,1,0.5355,loc101,control,0.4384,115.5619
319,1,56,139.5904,1.41,face,female,female,1,0.6573,loc101,control,0.41,127.5904
320,1,57,141.0902,1.4107,face,female,female,1,0.3819,loc101,control,0.4107,129.0902
321,1,58,142.5643,1.4361,face,female,female,1,0.417,loc101,control,0.4361,130.5643
322,1,59,144.0637,1.4366,face,female,female,1,0.3908,loc101,control,0.4366,132.0637
323,1,60,145.5639,1.437,face,female,male,0,0.4123,loc101,control,0.437,133.5639
324,1,61,147.0658,1.4353,face,male,male,1,0.4037,loc101,control,0.4353,135.0658
325,1,62,148.5671,1.4343,face,male,NR,0,999.5,loc101,control,0.4343,136.5671
326,1,63,150.0672,1.4337,face,male,male,1,0.2672,loc101,control,0.4337,138.0672
327,1,64,151.5683,1.4325,face,male,male,1,0.3137,loc101,control,0.4325,139.5683
328,1,65,153.0675,1.4332,face,male,male,1,0.2867,loc101,control,0.4332,141.0675
330,1,67,165.0994,1.4027,place,indoor,indoor,1,0.8549,loc101,control,0.4027,153.0994
331,1,68,166.6022,1.3996,place,outdoor,outdoor,1,0.5934,loc101,control,0.3996,154.6022
332,1,69,168.0722,1.4279,place,indoor,indoor,1,0.642,loc101,control,0.4279,156.0722
333,1,70,169.5697,1.4305,place,indoor,indoor,1,0.618,loc101,control,0.4305,157.5697
334,1,71,171.0709,1.4293,place,outdoor,NR,0,999.5,loc101,control,0.4293,159.0709
335,1,72,172.5716,1.4291,place,outdoor,indoor,0,0.5164,loc101,control,0.4291,160.5716
336,1,73,174.0724,1.4284,place,indoor,indoor,1,0.537,loc101,control,0.4284,162.0724
337,1,74,175.5731,1.4279,place,outdoor,outdoor,1,0.3645,loc101,control,0.4279,163.5731
338,1,75,177.0742,1.4262,place,outdoor,outdoor,1,0.5218,loc101,control,0.4262,165.0742
339,1,76,178.5743,1.426,place,indoor,indoor,1,0.5675,loc101,control,0.426,166.5743
341,1,78,190.6086,1.3917,face,female,female,1,0.7145,loc101,control,0.3917,178.6086
342,1,79,192.1092,1.3923,face,male,male,1,0.5797,loc101,control,0.3923,180.1092
343,1,80,193.5778,1.4233,face,female,male,0,0.5137,loc101,control,0.4233,181.5778
344,1,81,195.0774,1.4227,face,male,male,1,0.3222,loc101,control,0.4227,183.0774
345,1,82,196.5774,1.4238,face,female,female,1,0.5133,loc101,control,0.4238,184.5774
346,1,83,198.0794,1.4216,face,female,female,1,0.3881,loc101,control,0.4216,186.0794
347,1,84,199.5792,1.4219,face,male,male,1,0.4002,loc101,control,0.4219,187.5792
348,1,85,201.0803,1.4201,face,male,male,1,0.3481,loc101,control,0.4201,189.0803
349,1,86,202.5795,1.4212,face,female,female,1,0.5051,loc101,control,0.4212,190.5795
350,1,87,204.0812,1.4197,face,male,male,1,0.5434,loc101,control,0.4197,192.0812
352,1,89,216.1183,1.3837,place,outdoor,outdoor,1,0.7232,loc101,control,0.3837,204.1183
353,1,90,217.6203,1.382,place,indoor,indoor,1,0.6655,loc101,control,0.382,205.6203
354,1,91,219.1215,1.3798,place,outdoor,indoor,0,0.6451,loc101,control,0.3798,207.1215
355,1,92,220.5841,1.417,place,outdoor,indoor,0,0.6748,loc101,control,0.417,208.5841
356,1,93,222.0847,1.4165,place,outdoor,outdoor,1,0.53,loc101,control,0.4165,210.0847
357,1,94,223.5853,1.4158,place,indoor,indoor,1,0.6643,loc101,control,0.4158,211.5853
358,1,95,225.0866,1.4146,place,indoor,indoor,1,0.5965,loc101,control,0.4146,213.0866
359,1,96,226.5873,1.4136,place,indoor,indoor,1,0.6268,loc101,control,0.4136,214.5873
360,1,97,228.0874,1.4127,place,indoor,indoor,1,0.5466,loc101,control,0.4127,216.0874
361,1,98,229.5873,1.4141,place,outdoor,outdoor,1,0.5387,loc101,control,0.4141,217.5873
363,1,100,241.628,1.3723,place,outdoor,outdoor,1,1.0981,loc101,control,0.3723,229.628
364,1,101,243.128,1.3726,place,indoor,indoor,1,0.5719,loc101,control,0.3726,231.128
365,1,102,244.6293,1.3721,place,outdoor,indoor,0,0.5182,loc101,control,0.3721,232.6293
366,1,103,246.0914,1.41,place,outdoor,outdoor,1,0.5628,loc101,control,0.41,234.0914
367,1,104,247.5915,1.4087,place,indoor,indoor,1,0.5256,loc101,control,0.4087,235.5915
368,1,105,249.0908,1.4093,place,outdoor,outdoor,1,0.5522,loc101,control,0.4093,237.0908
369,1,106,250.592,1.4084,place,indoor,indoor,1,0.6048,loc101,control,0.4084,238.592
370,1,107,252.0929,1.4079,place,indoor,indoor,1,0.6261,loc101,control,0.4079,240.0929
371,1,108,253.5933,1.4078,place,indoor,outdoor,0,0.5963,loc101,control,0.4078,241.5933
372,1,109,255.0942,1.4068,place,outdoor,outdoor,1,0.5865,loc101,control,0.4068,243.0942
374,1,111,267.1372,1.3647,object,manmade,manmade,1,0.8769,loc101,control,0.3647,255.1372
375,1,112,268.6393,1.3621,object,manmade,manmade,1,0.5706,loc101,control,0.3621,256.6393
376,1,113,270.1401,1.3608,object,natural,manmade,0,0.5121,loc101,control,0.3608,258.1401
377,1,114,271.597,1.4036,object,natural,natural,1,0.637,loc101,control,0.4036,259.597
378,1,115,273.0975,1.4037,object,natural,natural,1,0.52,loc101,control,0.4037,261.0975
379,1,116,274.598,1.4032,object,natural,natural,1,0.5083,loc101,control,0.4032,262.598
380,1,117,276.0999,1.4011,object,manmade,manmade,1,0.5162,loc101,control,0.4011,264.0999
381,1,118,277.5994,1.4016,object,manmade,NR,0,999.5,loc101,control,0.4016,265.5994
382,1,119,279.1006,1.3996,object,natural,manmade,0,0.5263,loc101,control,0.3996,267.1006
383,1,120,280.6002,1.4007,object,manmade,manmade,1,0.61,loc101,control,0.4007,268.6002
385,1,122,292.6475,1.3544,face,female,female,1,0.7591,loc101,control,0.3544,280.6475
386,1,123,294.1514,1.3489,face,male,male,1,0.5857,loc101,control,0.3489,282.1514
387,1,124,295.6479,1.3524,face,male,male,1,0.9127,loc101,control,0.3524,283.6479
388,1,125,297.1029,1.3984,face,male,female,0,0.3524,loc101,control,0.3984,285.1029
389,1,126,298.6039,1.3972,face,male,male,1,0.5204,loc101,control,0.3972,286.6039
390,1,127,300.1044,1.3962,face,male,NR,0,999.5,loc101,control,0.3962,288.1044
391,1,128,301.6043,1.3961,face,female,female,1,0.5303,loc101,control,0.3961,289.6043
392,1,129,303.1056,1.3946,face,female,female,1,0.3816,loc101,control,0.3946,291.1056
393,1,130,304.6057,1.3954,face,female,female,1,0.5357,loc101,control,0.3954,292.6057
394,1,131,306.108,1.3926,face,female,NR,0,999.5,loc101,control,0.3926,294.108
396,2,1,12.0036,1.4975,place,indoor,indoor,1,0.654,loc101,control,0.4975,0.0036
397,2,2,13.6665,1.3347,place,indoor,indoor,1,1.0653,loc101,control,0.3347,1.6665
398,2,3,15.1102,1.391,place,indoor,outdoor,0,0.6285,loc101,control,0.391,3.1102
399,2,4,16.6108,1.3897,place,outdoor,outdoor,1,0.5501,loc101,control,0.3897,4.6108
400,2,5,18.1098,1.3911,place,indoor,indoor,1,0.5547,loc101,control,0.3911,6.1098
401,2,6,19.6114,1.3897,place,outdoor,outdoor,1,0.6637,loc101,control,0.3897,7.6114
402,2,7,21.1116,1.3889,place,outdoor,outdoor,1,0.5589,loc101,control,0.3889,9.1116
403,2,8,22.6127,1.3884,place,indoor,indoor,1,0.5563,loc101,control,0.3884,10.6127
404,2,9,24.1135,1.387,place,outdoor,indoor,0,0.592,loc101,control,0.387,12.1135
405,2,10,25.6138,1.3867,place,outdoor,indoor,0,0.5452,loc101,control,0.3867,13.6138
407,2,12,37.6665,1.3338,object,manmade,manmade,1,0.8063,loc101,control,0.3338,25.6665
408,2,13,39.1677,1.3335,object,natural,natural,1,0.6735,loc101,control,0.3335,27.1677
409,2,14,40.6693,1.3308,object,natural,natural,1,0.66,loc101,control,0.3308,28.6693
410,2,15,42.1157,1.385,object,natural,natural,1,0.5928,loc101,control,0.385,30.1157
411,2,16,43.6163,1.3852,object,manmade,manmade,1,0.7993,loc101,control,0.3852,31.6163
412,2,17,45.1181,1.382,object,natural,natural,1,0.5668,loc101,control,0.382,33.1181
413,2,18,46.6173,1.383,object,manmade,manmade,1,0.6004,loc101,control,0.383,34.6173
414,2,19,48.1182,1.3823,object,manmade,manmade,1,0.6051,loc101,control,0.3823,36.1182
415,2,20,49.6183,1.3828,object,manmade,manmade,1,0.7462,loc101,control,0.3828,37.6183
416,2,21,51.1197,1.3814,object,natural,natural,1,0.7875,loc101,control,0.3814,39.1197
418,2,23,63.1777,1.3238,place,indoor,indoor,1,0.8467,loc101,control,0.3238,51.1777
419,2,24,64.678,1.3236,place,indoor,indoor,1,0.7504,loc101,control,0.3236,52.678
420,2,25,66.179,1.3224,place,outdoor,outdoor,1,0.6694,loc101,control,0.3224,54.179
421,2,26,67.623,1.3776,place,indoor,indoor,1,0.6368,loc101,control,0.3776,55.623
422,2,27,69.1228,1.3785,place,outdoor,outdoor,1,0.6177,loc101,control,0.3785,57.1228
423,2,28,70.6247,1.3756,place,outdoor,outdoor,1,0.6473,loc101,control,0.3756,58.6247
424,2,29,72.1239,1.3774,place,outdoor,outdoor,1,0.6131,loc101,control,0.3774,60.1239
425,2,30,73.6251,1.3761,place,indoor,indoor,1,0.585,loc101,control,0.3761,61.6251
426,2,31,75.1273,1.3731,place,indoor,indoor,1,0.6698,loc101,control,0.3731,63.1273
427,2,32,76.6271,1.3732,place,outdoor,outdoor,1,0.5464,loc101,control,0.3732,64.6271
429,2,34,88.633,1.3681,object,manmade,manmade,1,0.6918,loc101,control,0.3681,76.633
430,2,35,90.1344,1.3669,object,natural,natural,1,0.6737,loc101,control,0.3669,78.1344
431,2,36,91.6379,1.3628,object,manmade,manmade,1,0.5775,loc101,control,0.3628,79.6379
432,2,37,93.3386,1.1617,object,natural,natural,1,0.8078,loc101,control,0.1617,81.3386
433,2,38,94.6359,1.3651,object,natural,natural,1,0.7247,loc101,control,0.3651,82.6359
434,2,39,96.1349,1.366,object,natural,natural,1,0.6111,loc101,control,0.366,84.1349
435,2,40,97.6324,1.3687,object,manmade,manmade,1,0.6007,loc101,control,0.3687,85.6324
436,2,41,99.132,1.3683,object,manmade,manmade,1,0.6556,loc101,control,0.3683,87.132
437,2,42,100.6327,1.368,object,natural,natural,1,0.6446,loc101,control,0.368,88.6327
438,2,43,102.1345,1.3657,object,manmade,manmade,1,0.6102,loc101,control,0.3657,90.1345
440,2,45,114.1895,1.3113,face,female,female,1,0.6844,loc101,control,0.3113,102.1895
441,2,46,115.6414,1.3599,face,male,male,1,0.5377,loc101,control,0.3599,103.6414
442,2,47,117.1994,1.3015,face,female,female,1,0.6862,loc101,control,0.3015,105.1994
443,2,48,118.6356,1.3646,face,female,female,1,0.6723,loc101,control,0.3646,106.6356
444,2,49,120.1356,1.3649,face,female,female,1,0.7915,loc101,control,0.3649,108.1356
445,2,50,121.6366,1.3646,face,male,male,1,0.6332,loc101,control,0.3646,109.6366
446,2,51,123.1376,1.3629,face,male,male,1,0.557,loc101,control,0.3629,111.1376
447,2,52,124.6387,1.3614,face,male,male,1,0.5353,loc101,control,0.3614,112.6387
448,2,53,126.1373,1.3629,face,male,male,1,0.6146,loc101,control,0.3629,114.1373
449,2,54,127.6385,1.3625,face,female,female,1,0.6961,loc101,control,0.3625,115.6385
451,2,56,139.7053,1.2963,place,indoor,indoor,1,0.9739,loc101,control,0.2963,127.7053
452,2,57,141.2069,1.2934,place,outdoor,outdoor,1,0.7763,loc101,control,0.2934,129.2069
453,2,58,142.7066,1.2939,place,indoor,indoor,1,0.7222,loc101,control,0.2939,130.7066
454,2,59,144.1411,1.3592,place,outdoor,outdoor,1,0.5888,loc101,control,0.3592,132.1411
455,2,60,145.6426,1.3575,place,outdoor,outdoor,1,0.6103,loc101,control,0.3575,133.6426
456,2,61,147.1424,1.3582,place,indoor,indoor,1,0.6184,loc101,control,0.3582,135.1424
457,2,62,148.6429,1.3585,place,indoor,indoor,1,0.5591,loc101,control,0.3585,136.6429
458,2,63,150.1456,1.3553,place,outdoor,outdoor,1,0.8478,loc101,control,0.3553,138.1456
459,2,64,151.6474,1.3535,place,indoor,indoor,1,0.5878,loc101,control,0.3535,139.6474
460,2,65,153.1458,1.3543,place,outdoor,outdoor,1,0.6135,loc101,control,0.3543,141.1458
462,2,67,165.2141,1.2864,object,manmade,manmade,1,0.8848,loc101,control,0.2864,153.2141
463,2,68,166.715,1.2854,object,manmade,manmade,1,0.7533,loc101,control,0.2854,154.715
464,2,69,168.2156,1.2857,object,manmade,natural,0,0.6908,loc101,control,0.2857,156.2156
465,2,70,169.6493,1.3521,object,natural,natural,1,0.6535,loc101,control,0.3521,157.6493
466,2,71,171.1488,1.3519,object,natural,natural,1,0.7545,loc101,control,0.3519,159.1488
467,2,72,172.6489,1.3524,object,natural,natural,1,0.6854,loc101,control,0.3524,160.6489
468,2,73,174.1501,1.3502,object,manmade,manmade,1,0.6894,loc101,control,0.3502,162.1501
469,2,74,175.6506,1.3496,object,manmade,manmade,1,0.6412,loc101,control,0.3496,163.6506
470,2,75,177.1512,1.3493,object,natural,natural,1,0.6112,loc101,control,0.3493,165.1512
471,2,76,178.6513,1.3493,object,natural,natural,1,0.6221,loc101,control,0.3493,166.6513
473,2,78,190.7237,1.2778,face,male,male,1,0.8499,loc101,control,0.2778,178.7237
474,2,79,192.2259,1.2755,face,male,male,1,0.7279,loc101,control,0.2755,180.2259
475,2,80,193.7263,1.2751,face,female,female,1,0.645,loc101,control,0.2751,181.7263
476,2,81,195.1555,1.3449,face,male,male,1,0.5753,loc101,control,0.3449,183.1555
477,2,82,196.6548,1.3453,face,male,male,1,0.6133,loc101,control,0.3453,184.6548
478,2,83,198.1547,1.3462,face,female,male,0,0.6979,loc101,control,0.3462,186.1547
479,2,84,199.6559,1.3456,face,female,female,1,0.5478,loc101,control,0.3456,187.6559
480,2,85,201.1578,1.3424,face,male,male,1,0.6086,loc101,control,0.3424,189.1578
481,2,86,202.6574,1.3437,face,female,female,1,0.7157,loc101,control,0.3437,190.6574
482,2,87,204.1595,1.3416,face,female,female,1,0.622,loc101,control,0.3416,192.1595
484,2,89,216.2335,1.2676,face,female,female,1,0.8005,loc101,control,0.2676,204.2335
485,2,90,217.7352,1.2657,face,female,female,1,0.6076,loc101,control,0.2657,205.7352
486,2,91,219.2357,1.2649,face,female,female,1,0.5934,loc101,control,0.2649,207.2357
487,2,92,220.6602,1.3399,face,male,male,1,0.6111,loc101,control,0.3399,208.6602
488,2,93,222.1612,1.339,face,male,male,1,0.6313,loc101,control,0.339,210.1612
489,2,94,223.6617,1.3393,face,male,male,1,0.5954,loc101,control,0.3393,211.6617
490,2,95,225.1626,1.3375,face,male,male,1,0.6248,loc101,control,0.3375,213.1626
491,2,96,226.6632,1.3374,face,male,male,1,0.6115,loc101,control,0.3374,214.6632
492,2,97,228.1642,1.3359,face,female,female,1,0.5438,loc101,control,0.3359,216.1642
493,2,98,229.6641,1.3373,face,female,NR,0,999.5,loc101,control,0.3373,217.6641
495,2,100,241.7437,1.2575,object,manmade,manmade,1,0.9366,loc101,control,0.2575,229.7437
496,2,101,243.2449,1.2558,object,manmade,manmade,1,0.7602,loc101,control,0.2558,231.2449
497,2,102,244.7444,1.2561,object,manmade,natural,0,0.9613,loc101,control,0.2561,232.7444
498,2,103,246.1671,1.3334,object,manmade,natural,0,0.7085,loc101,control,0.3334,234.1671
499,2,104,247.6682,1.3328,object,manmade,manmade,1,0.7663,loc101,control,0.3328,235.6682
500,2,105,249.1693,1.3309,object,natural,natural,1,0.5563,loc101,control,0.3309,237.1693
501,2,106,250.6683,1.333,object,natural,natural,1,0.577,loc101,control,0.333,238.6683
502,2,107,252.1696,1.3307,object,natural,natural,1,0.6867,loc101,control,0.3307,240.1696
503,2,108,253.6699,1.3305,object,natural,natural,1,0.5728,loc101,control,0.3305,241.6699
504,2,109,255.1698,1.3306,object,natural,natural,1,0.5551,loc101,control,0.3306,243.1698
506,2,111,267.253,1.2482,place,outdoor,outdoor,1,0.8535,loc101,control,0.2482,255.253
507,2,112,268.754,1.2462,place,indoor,indoor,1,0.7062,loc101,control,0.2462,256.754
508,2,113,270.254,1.2465,place,indoor,indoor,1,0.6668,loc101,control,0.2465,258.254
509,2,114,271.6746,1.3267,place,outdoor,outdoor,1,0.7463,loc101,control,0.3267,259.6746
510,2,115,273.1754,1.3254,place,outdoor,outdoor,1,1.0492,loc101,control,0.3254,261.1754
511,2,116,274.6761,1.3251,place,indoor,indoor,1,0.7062,loc101,control,0.3251,262.6761
512,2,117,276.1765,1.3239,place,outdoor,outdoor,1,0.8014,loc101,control,0.3239,264.1765
513,2,118,277.6762,1.3249,place,indoor,indoor,1,0.6996,loc101,control,0.3249,265.6762
514,2,119,279.1771,1.323,place,indoor,indoor,1,0.7525,loc101,control,0.323,267.1771
515,2,120,280.6771,1.3239,place,outdoor,outdoor,1,0.6269,loc101,control,0.3239,268.6771
517,2,122,292.7617,1.2403,face,female,female,1,0.9037,loc101,control,0.2403,280.7617
518,2,123,294.264,1.2371,face,male,male,1,0.6889,loc101,control,0.2371,282.264
519,2,124,295.7574,1.2436,face,male,male,1,0.684,loc101,control,0.2436,283.7574
520,2,125,297.1804,1.3202,face,male,male,1,0.7373,loc101,control,0.3202,285.1804
521,2,126,298.683,1.3174,face,male,male,1,0.5542,loc101,control,0.3174,286.683
522,2,127,300.1803,1.3205,face,female,female,1,0.795,loc101,control,0.3205,288.1803
523,2,128,301.6826,1.3183,face,female,female,1,0.7776,loc101,control,0.3183,289.6826
524,2,129,303.183,1.3177,face,male,male,1,0.729,loc101,control,0.3177,291.183
525,2,130,304.6844,1.3163,face,female,female,1,0.7079,loc101,control,0.3163,292.6844
526,2,131,306.1833,1.3172,face,female,male,0,0.6724,loc101,control,0.3172,294.1833
528,1,1,12.0039,1.4969,object,natural,natural,1,0.802,loc102,control,0.4969,0.0039
529,1,2,13.9284,1.073,object,natural,manmade,0,0.839,loc102,control,0.073,1.9284
530,1,3,15.0294,1.4714,object,manmade,NR,0,999.5,loc102,control,0.4714,3.0294
531,1,4,16.5291,1.4719,object,manmade,natural,0,0.611,loc102,control,0.4719,4.5291
532,1,5,18.03,1.4701,object,natural,natural,1,0.3969,loc102,control,0.4701,6.03
533,1,6,19.5295,1.4715,object,manmade,natural,0,0.5105,loc102,control,0.4715,7.5295
534,1,7,21.0314,1.4695,object,manmade,natural,0,0.4058,loc102,control,0.4695,9.0314
535,1,8,22.5314,1.4692,object,manmade,manmade,1,0.7433,loc102,control,0.4692,10.5314
536,1,9,24.0318,1.4692,object,natural,natural,1,0.3606,loc102,control,0.4692,12.0318
537,1,10,25.5329,1.4674,object,natural,manmade,0,0.6941,loc102,control,0.4674,13.5329
539,1,12,37.5485,1.4526,face,female,male,0,0.5949,loc102,control,0.4526,25.5485
540,1,13,39.0489,1.4523,face,female,female,1,0.4224,loc102,control,0.4523,27.0489
541,1,14,40.5363,1.4642,face,male,male,1,0.3698,loc102,control,0.4642,28.5363
542,1,15,42.0355,1.4649,face,female,female,1,0.5484,loc102,control,0.4649,30.0355
543,1,16,43.5358,1.4657,face,male,male,1,0.2978,loc102,control,0.4657,31.5358
544,1,17,45.0384,1.4628,face,male,male,1,0.5623,loc102,control,0.4628,33.0384
545,1,18,46.538,1.463,face,male,male,1,0.6751,loc102,control,0.463,34.538
546,1,19,48.038,1.4627,face,female,female,1,0.3683,loc102,control,0.4627,36.038
547,1,20,49.5389,1.4619,face,male,male,1,0.5885,loc102,control,0.4619,37.5389
548,1,21,51.0398,1.4603,face,female,female,1,0.3218,loc102,control,0.4603,39.0398
550,1,23,63.0564,1.4451,object,manmade,natural,0,0.9408,loc102,control,0.4451,51.0564
551,1,24,64.5587,1.4428,object,natural,natural,1,0.5372,loc102,control,0.4428,52.5587
552,1,25,66.0429,1.4581,object,natural,natural,1,0.3831,loc102,control,0.4581,54.0429
553,1,26,67.5414,1.4595,object,natural,natural,1,0.5586,loc102,control,0.4595,55.5414
554,1,27,69.0423,1.4585,object,manmade,manmade,1,0.6325,loc102,control,0.4585,57.0423
555,1,28,70.5428,1.4576,object,natural,natural,1,0.5493,loc102,control,0.4576,58.5428
556,1,29,72.043,1.458,object,manmade,manmade,1,0.5076,loc102,control,0.458,60.043
557,1,30,73.545,1.4561,object,manmade,manmade,1,0.371,loc102,control,0.4561,61.545
558,1,31,75.0458,1.4549,object,natural,natural,1,0.4007,loc102,control,0.4549,63.0458
559,1,32,76.5456,1.4549,object,manmade,manmade,1,0.3428,loc102,control,0.4549,64.5456
561,1,34,88.566,1.4348,face,male,male,1,0.2762,loc102,control,0.4348,76.566
562,1,35,90.0677,1.4329,face,female,female,1,0.5783,loc102,control,0.4329,78.0677
563,1,36,91.5488,1.4515,face,female,female,1,0.515,loc102,control,0.4515,79.5488
564,1,37,93.0479,1.4526,face,male,male,1,0.4188,loc102,control,0.4526,81.0479
565,1,38,94.5483,1.452,face,female,female,1,0.3861,loc102,control,0.452,82.5483
566,1,39,96.0486,1.4518,face,female,male,0,0.2854,loc102,control,0.4518,84.0486
567,1,40,97.5502,1.4507,face,male,male,1,0.3475,loc102,control,0.4507,85.5502
568,1,41,99.0506,1.4504,face,female,female,1,0.4407,loc102,control,0.4504,87.0506
569,1,42,100.552,1.4492,face,male,male,1,0.3549,loc102,control,0.4492,88.552
570,1,43,102.0522,1.4487,face,male,male,1,0.3188,loc102,control,0.4487,90.0522
572,1,45,114.0772,1.4247,object,manmade,manmade,1,0.742,loc102,control,0.4247,102.0772
573,1,46,115.5784,1.4228,object,manmade,manmade,1,0.5928,loc102,control,0.4228,103.5784
574,1,47,117.0554,1.4458,object,natural,natural,1,0.268,loc102,control,0.4458,105.0554
575,1,48,118.5554,1.446,object,natural,natural,1,0.3771,loc102,control,0.446,106.5554
576,1,49,120.0558,1.445,object,natural,NR,0,999.5,loc102,control,0.445,108.0558
577,1,50,121.5558,1.445,object,manmade,manmade,1,0.3489,loc102,control,0.445,109.5558
578,1,51,123.0572,1.4435,object,manmade,manmade,1,0.3921,loc102,control,0.4435,111.0572
579,1,52,124.5574,1.4435,object,natural,manmade,0,0.3551,loc102,control,0.4435,112.5574
580,1,53,126.058,1.4429,object,natural,natural,1,0.4133,loc102,control,0.4429,114.058
581,1,54,127.5583,1.4422,object,manmade,manmade,1,0.2578,loc102,control,0.4422,115.5583
583,1,56,139.5863,1.4148,place,indoor,NR,0,999.5,loc102,control,0.4148,127.5863
584,1,57,141.0873,1.4139,place,outdoor,outdoor,1,0.3664,loc102,control,0.4139,129.0873
585,1,58,142.5618,1.4393,place,outdoor,outdoor,1,0.5778,loc102,control,0.4393,130.5618
586,1,59,144.0619,1.4395,place,indoor,indoor,1,0.4135,loc102,control,0.4395,132.0619
587,1,60,145.5629,1.4381,place,indoor,indoor,1,0.3374,loc102,control,0.4381,133.5629
588,1,61,147.0626,1.4386,place,indoor,indoor,1,0.5189,loc102,control,0.4386,135.0626
589,1,62,148.5641,1.4371,place,indoor,indoor,1,0.4143,loc102,control,0.4371,136.5641
590,1,63,150.0641,1.437,place,outdoor,indoor,0,0.3176,loc102,control,0.437,138.0641
591,1,64,151.565,1.4358,place,outdoor,outdoor,1,0.4048,loc102,control,0.4358,139.565
592,1,65,153.0656,1.4347,place,outdoor,indoor,0,0.5254,loc102,control,0.4347,141.0656
594,1,67,165.0961,1.405,object,manmade,manmade,1,0.8159,loc102,control,0.405,153.0961
595,1,68,166.5973,1.4034,object,natural,manmade,0,0.3684,loc102,control,0.4034,154.5973
596,1,69,168.0674,1.4332,object,natural,natural,1,0.3698,loc102,control,0.4332,156.0674
597,1,70,169.5679,1.4335,object,manmade,manmade,1,0.3433,loc102,control,0.4335,157.5679
598,1,71,171.0688,1.4316,object,natural,NR,0,999.5,loc102,control,0.4316,159.0688
599,1,72,172.5687,1.4315,object,natural,natural,1,0.5236,loc102,control,0.4315,160.5687
600,1,73,174.069,1.432,object,manmade,manmade,1,0.5983,loc102,control,0.432,162.069
601,1,74,175.5708,1.4303,object,natural,manmade,0,0.4,loc102,control,0.4303,163.5708
602,1,75,177.0709,1.4293,object,manmade,natural,0,0.3977,loc102,control,0.4293,165.0709
603,1,76,178.571,1.4296,object,manmade,manmade,1,0.3683,loc102,control,0.4296,166.571
605,1,78,190.6043,1.3968,place,outdoor,outdoor,1,0.6973,loc102,control,0.3968,178.6043
606,1,79,192.1064,1.3955,place,outdoor,outdoor,1,0.5087,loc102,control,0.3955,180.1064
607,1,80,193.5755,1.4246,place,indoor,indoor,1,0.6337,loc102,control,0.4246,181.5755
608,1,81,195.073,1.4278,place,outdoor,NR,0,999.5,loc102,control,0.4278,183.073
609,1,82,196.5752,1.4261,place,indoor,indoor,1,0.3254,loc102,control,0.4261,184.5752
610,1,83,198.0758,1.4255,place,outdoor,indoor,0,0.5555,loc102,control,0.4255,186.0758
611,1,84,199.5765,1.4247,place,indoor,indoor,1,0.5289,loc102,control,0.4247,187.5765
612,1,85,201.0775,1.4235,place,indoor,indoor,1,0.4043,loc102,control,0.4235,189.0775
613,1,86,202.5782,1.4223,place,indoor,indoor,1,0.5628,loc102,control,0.4223,190.5782
614,1,87,204.0781,1.4222,place,outdoor,outdoor,1,0.2874,loc102,control,0.4222,192.0781
616,1,89,216.1145,1.3864,face,male,male,1,0.6234,loc102,control,0.3864,204.1145
617,1,90,217.6158,1.385,face,female,female,1,0.3435,loc102,control,0.385,205.6158
618,1,91,219.0804,1.4197,face,male,male,1,0.5107,loc102,control,0.4197,207.0804
619,1,92,220.5806,1.4198,face,male,male,1,0.5844,loc102,control,0.4198,208.5806
620,1,93,222.0814,1.4197,face,female,male,0,0.3771,loc102,control,0.4197,210.0814
621,1,94,223.5824,1.4186,face,male,male,1,0.2992,loc102,control,0.4186,211.5824
622,1,95,225.0826,1.4178,face,male,NR,0,999.5,loc102,control,0.4178,213.0826
623,1,96,226.5833,1.4173,face,female,female,1,0.3149,loc102,control,0.4173,214.5833
624,1,97,228.0842,1.417,face,female,female,1,0.5907,loc102,control,0.417,216.0842
625,1,98,229.5852,1.4149,face,female,male,0,0.3729,loc102,control,0.4149,217.5852
627,1,100,241.6242,1.3761,place,indoor,indoor,1,0.6934,loc102,control,0.3761,229.6242
628,1,101,243.1249,1.3764,place,outdoor,outdoor,1,0.6714,loc102,control,0.3764,231.1249
629,1,102,244.5877,1.4134,place,indoor,indoor,1,0.5661,loc102,control,0.4134,232.5877
630,1,103,246.0883,1.4118,place,outdoor,outdoor,1,0.5693,loc102,control,0.4118,234.0883
631,1,104,247.587,1.4136,place,outdoor,indoor,0,0.2705,loc102,control,0.4136,235.587
632,1,105,249.0878,1.4133,place,indoor,indoor,1,0.6667,loc102,control,0.4133,237.0878
633,1,106,250.5894,1.4109,place,indoor,outdoor,0,0.3416,loc102,control,0.4109,238.5894
634,1,107,252.0887,1.4121,place,outdoor,outdoor,1,0.2876,loc102,control,0.4121,240.0887
635,1,108,253.5914,1.4095,place,outdoor,indoor,0,0.5332,loc102,control,0.4095,241.5914
636,1,109,255.0911,1.4098,place,indoor,indoor,1,0.6056,loc102,control,0.4098,243.0911
638,1,111,267.1346,1.3668,face,female,male,0,0.6803,loc102,control,0.3668,255.1346
639,1,112,268.6354,1.3667,face,male,male,1,0.5086,loc102,control,0.3667,256.6354
640,1,113,270.0941,1.4065,face,female,female,1,0.3058,loc102,control,0.4065,258.0941
641,1,114,271.5932,1.4081,face,female,female,1,0.5215,loc102,control,0.4081,259.5932
642,1,115,273.095,1.4055,face,female,female,1,0.3142,loc102,control,0.4055,261.095
643,1,116,274.5938,1.4067,face,female,male,0,0.2472,loc102,control,0.4067,262.5938
644,1,117,276.0954,1.4052,face,male,male,1,0.274,loc102,control,0.4052,264.0954
645,1,118,277.5959,1.4052,face,male,male,1,0.3587,loc102,control,0.4052,265.5959
646,1,119,279.0971,1.4036,face,male,male,1,0.5739,loc102,control,0.4036,267.0971
647,1,120,280.5971,1.4038,face,male,male,1,0.383,loc102,control,0.4038,268.5971
649,1,122,292.6438,1.3571,place,outdoor,outdoor,1,0.7704,loc102,control,0.3571,280.6438
650,1,123,294.1443,1.3576,place,indoor,indoor,1,0.607,loc102,control,0.3576,282.1443
651,1,124,295.6017,1.3985,place,indoor,indoor,1,0.5361,loc102,control,0.3985,283.6017
652,1,125,297.0998,1.4015,place,indoor,indoor,1,0.3709,loc102,control,0.4015,285.0998
653,1,126,298.6007,1.4002,place,outdoor,outdoor,1,0.378,loc102,control,0.4002,286.6007
654,1,127,300.1006,1.3998,place,indoor,indoor,1,0.588,loc102,control,0.3998,288.1006
655,1,128,301.6011,1.3997,place,outdoor,outdoor,1,0.3558,loc102,control,0.3997,289.6011
656,1,129,303.1023,1.3985,place,outdoor,indoor,0,0.5411,loc102,control,0.3985,291.1023
657,1,130,304.6031,1.3979,place,indoor,indoor,1,0.3309,loc102,control,0.3979,292.6031
658,1,131,306.1042,1.3965,place,outdoor,outdoor,1,0.2994,loc102,control,0.3965,294.1042
660,2,1,12.0039,1.4979,object,manmade,NR,0,999.5,loc102,control,0.4979,0.0039
661,2,2,13.6638,1.3376,object,natural,manmade,0,0.5289,loc102,control,0.3376,1.6638
662,2,3,15.1081,1.3925,object,manmade,manmade,1,0.5429,loc102,control,0.3925,3.1081
663,2,4,16.6068,1.3936,object,natural,NR,0,999.5,loc102,control,0.3936,4.6068
664,2,5,18.1085,1.393,object,natural,manmade,0,0.3585,loc102,control,0.393,6.1085
665,2,6,19.6098,1.3911,object,manmade,natural,0,0.5714,loc102,control,0.3911,7.6098
666,2,7,21.1092,1.3922,object,manmade,manmade,1,0.5711,loc102,control,0.3922,9.1092
667,2,8,22.6114,1.3889,object,natural,natural,1,0.5034,loc102,control,0.3889,10.6114
668,2,9,24.1103,1.3908,object,natural,natural,1,0.3344,loc102,control,0.3908,12.1103
669,2,10,25.6113,1.3891,object,manmade,manmade,1,0.269,loc102,control,0.3891,13.6113
671,2,12,37.6222,1.3779,place,outdoor,outdoor,1,0.7112,loc102,control,0.3779,25.6222
672,2,13,39.1186,1.3819,place,indoor,indoor,1,0.5868,loc102,control,0.3819,27.1186
673,2,14,40.6185,1.3816,place,outdoor,outdoor,1,0.6278,loc102,control,0.3816,28.6185
674,2,15,42.1184,1.383,place,indoor,indoor,1,0.3118,loc102,control,0.383,30.1184
675,2,16,43.6228,1.3785,place,indoor,outdoor,0,0.5742,loc102,control,0.3785,31.6228
676,2,17,45.1209,1.3805,place,indoor,outdoor,0,0.3622,loc102,control,0.3805,33.1209
677,2,18,46.6194,1.3815,place,outdoor,outdoor,1,0.3354,loc102,control,0.3815,34.6194
678,2,19,48.119,1.3819,place,outdoor,indoor,0,0.2619,loc102,control,0.3819,36.119
679,2,20,49.6184,1.3823,place,indoor,indoor,1,0.6556,loc102,control,0.3823,37.6184
680,2,21,51.1178,1.3836,place,outdoor,outdoor,1,0.5332,loc102,control,0.3836,39.1178
682,2,23,63.1734,1.3281,object,natural,natural,1,0.7259,loc102,control,0.3281,51.1734
683,2,24,64.6746,1.3261,object,manmade,manmade,1,0.7093,loc102,control,0.3261,52.6746
684,2,25,66.1749,1.3256,object,manmade,manmade,1,0.6125,loc102,control,0.3256,54.1749
685,2,26,67.6201,1.3811,object,natural,natural,1,0.3503,loc102,control,0.3811,55.6201
686,2,27,69.1209,1.3805,object,natural,manmade,0,0.5681,loc102,control,0.3805,57.1209
687,2,28,70.6225,1.3784,object,manmade,manmade,1,0.515,loc102,control,0.3784,58.6225
688,2,29,72.1231,1.3778,object,natural,natural,1,0.3092,loc102,control,0.3778,60.1231
689,2,30,73.6232,1.3777,object,manmade,NR,0,999.5,loc102,control,0.3777,61.6232
690,2,31,75.1237,1.3771,object,manmade,manmade,1,0.695,loc102,control,0.3771,63.1237
691,2,32,76.626,1.3747,object,natural,natural,1,0.3452,loc102,control,0.3747,64.626
693,2,34,88.683,1.3178,face,male,male,1,0.578,loc102,control,0.3178,76.683
694,2,35,90.1838,1.3183,face,female,female,1,0.5927,loc102,control,0.3183,78.1838
695,2,36,91.6858,1.315,face,female,female,1,0.6761,loc102,control,0.315,79.6858
696,2,37,93.1265,1.3742,face,male,male,1,0.5607,loc102,control,0.3742,81.1265
697,2,38,94.6277,1.3726,face,female,female,1,0.3281,loc102,control,0.3726,82.6277
698,2,39,96.1264,1.3747,face,female,female,1,0.5206,loc102,control,0.3747,84.1264
699,2,40,97.63,1.3702,face,male,male,1,0.6245,loc102,control,0.3702,85.63
700,2,41,99.1298,1.3709,face,male,male,1,0.3173,loc102,control,0.3709,87.1298
701,2,42,100.6294,1.3713,face,female,female,1,0.5571,loc102,control,0.3713,88.6294
702,2,43,102.1301,1.371,face,male,male,1,0.2695,loc102,control,0.371,90.1301
704,2,45,114.1928,1.3087,object,natural,manmade,0,0.5315,loc102,control,0.3087,102.1928
705,2,46,115.6938,1.3073,object,manmade,manmade,1,0.2817,loc102,control,0.3073,103.6938
706,2,47,117.1946,1.3057,object,natural,natural,1,0.539,loc102,control,0.3057,105.1946
707,2,48,118.6328,1.3673,object,natural,natural,1,0.3441,loc102,control,0.3673,106.6328
708,2,49,120.1331,1.367,object,natural,natural,1,0.5914,loc102,control,0.367,108.1331
709,2,50,121.635,1.3654,object,natural,natural,1,0.6568,loc102,control,0.3654,109.635
710,2,51,123.136,1.3652,object,manmade,manmade,1,0.2892,loc102,control,0.3652,111.136
711,2,52,124.636,1.3649,object,manmade,manmade,1,0.2649,loc102,control,0.3649,112.636
712,2,53,126.1364,1.3647,object,manmade,manmade,1,0.6896,loc102,control,0.3647,114.1364
713,2,54,127.6372,1.3639,object,manmade,manmade,1,0.5204,loc102,control,0.3639,115.6372
715,2,56,139.7014,1.3002,place,indoor,indoor,1,0.8254,loc102,control,0.3002,127.7014
716,2,57,141.2037,1.2966,place,indoor,indoor,1,0.5632,loc102,control,0.2966,129.2037
717,2,58,142.7034,1.2967,place,outdoor,outdoor,1,0.5272,loc102,control,0.2967,130.7034
718,2,59,144.138,1.3631,place,outdoor,outdoor,1,0.3479,loc102,control,0.3631,132.138
719,2,60,145.6401,1.3601,place,indoor,indoor,1,0.2727,loc102,control,0.3601,133.6401
720,2,61,147.1403,1.3599,place,indoor,indoor,1,0.3288,loc102,control,0.3599,135.1403
721,2,62,148.6413,1.3595,place,outdoor,outdoor,1,0.5333,loc102,control,0.3595,136.6413
722,2,63,150.1418,1.3587,place,outdoor,outdoor,1,0.5445,loc102,control,0.3587,138.1418
723,2,64,151.6426,1.3587,place,outdoor,outdoor,1,0.6778,loc102,control,0.3587,139.6426
724,2,65,153.1437,1.3574,place,indoor,indoor,1,0.1974,loc102,control,0.3574,141.1437
726,2,67,165.2115,1.2899,place,indoor,indoor,1,0.6169,loc102,control,0.2899,153.2115
727,2,68,166.7131,1.288,place,outdoor,indoor,0,0.5749,loc102,control,0.288,154.7131
728,2,69,168.2132,1.288,place,indoor,indoor,1,0.7305,loc102,control,0.288,156.2132
729,2,70,169.6479,1.353,place,indoor,indoor,1,0.5707,loc102,control,0.353,157.6479
730,2,71,171.1467,1.3547,place,indoor,NR,0,999.5,loc102,control,0.3547,159.1467
731,2,72,172.6484,1.3528,place,outdoor,NR,0,999.5,loc102,control,0.3528,160.6484
732,2,73,174.1497,1.3511,place,outdoor,outdoor,1,0.3083,loc102,control,0.3511,162.1497
733,2,74,175.6483,1.3522,place,indoor,indoor,1,0.5213,loc102,control,0.3522,163.6483
734,2,75,177.1507,1.35,place,outdoor,indoor,0,0.3026,loc102,control,0.35,165.1507
735,2,76,178.651,1.3492,place,outdoor,indoor,0,0.641,loc102,control,0.3492,166.651
737,2,78,190.7208,1.2812,face,female,female,1,0.8949,loc102,control,0.2812,178.7208
738,2,79,192.2231,1.2782,face,female,female,1,0.592,loc102,control,0.2782,180.2231
739,2,80,193.7229,1.2775,face,female,male,0,0.5618,loc102,control,0.2775,181.7229
740,2,81,195.1532,1.3482,face,male,NR,0,999.5,loc102,control,0.3482,183.1532
741,2,82,196.6534,1.3468,face,male,male,1,0.3014,loc102,control,0.3468,184.6534
742,2,83,198.1519,1.3495,face,male,female,0,0.2669,loc102,control,0.3495,186.1519
743,2,84,199.6563,1.3443,face,female,female,1,0.3075,loc102,control,0.3443,187.6563
744,2,85,201.1547,1.3463,face,male,NR,0,999.5,loc102,control,0.3463,189.1547
745,2,86,202.6556,1.3447,face,female,male,0,0.2751,loc102,control,0.3447,190.6556
746,2,87,204.1546,1.346,face,male,male,1,0.5321,loc102,control,0.346,192.1546
748,2,89,216.2308,1.2697,face,female,female,1,0.7663,loc102,control,0.2697,204.2308
749,2,90,217.7312,1.2704,face,male,male,1,0.6814,loc102,control,0.2704,205.7312
750,2,91,219.2329,1.2675,face,male,male,1,0.7253,loc102,control,0.2675,207.2329
751,2,92,220.659,1.3411,face,female,male,0,0.5513,loc102,control,0.3411,208.659
752,2,93,222.1586,1.3417,face,male,male,1,0.2731,loc102,control,0.3417,210.1586
753,2,94,223.6585,1.3418,face,female,female,1,0.2667,loc102,control,0.3418,211.6585
754,2,95,225.1596,1.3415,face,female,male,0,0.5492,loc102,control,0.3415,213.1596
755,2,96,226.6621,1.3391,face,male,NR,0,999.5,loc102,control,0.3391,214.6621
756,2,97,228.1618,1.3394,face,male,male,1,0.6603,loc102,control,0.3394,216.1618
757,2,98,229.6653,1.3356,face,female,male,0,0.5625,loc102,control,0.3356,217.6653
759,2,100,241.74,1.2609,place,indoor,NR,0,999.5,loc102,control,0.2609,229.74
760,2,101,243.2412,1.2601,place,outdoor,indoor,0,0.2393,loc102,control,0.2601,231.2412
761,2,102,244.7423,1.258,place,outdoor,indoor,0,0.532,loc102,control,0.258,232.7423
762,2,103,246.1662,1.335,place,indoor,indoor,1,0.6571,loc102,control,0.335,234.1662
763,2,104,247.6682,1.3326,place,outdoor,outdoor,1,0.55,loc102,control,0.3326,235.6682
764,2,105,249.168,1.3323,place,outdoor,outdoor,1,0.5147,loc102,control,0.3323,237.168
765,2,106,250.6665,1.3342,place,indoor,indoor,1,0.2428,loc102,control,0.3342,238.6665
766,2,107,252.1685,1.3316,place,outdoor,indoor,0,0.2605,loc102,control,0.3316,240.1685
767,2,108,253.6682,1.3326,place,indoor,indoor,1,0.6777,loc102,control,0.3326,241.6682
768,2,109,255.1687,1.3323,place,indoor,indoor,1,0.5226,loc102,control,0.3323,243.1687
770,2,111,267.2501,1.2516,face,male,male,1,0.7939,loc102,control,0.2516,255.2501
771,2,112,268.752,1.2494,face,female,female,1,0.5703,loc102,control,0.2494,256.752
772,2,113,270.2517,1.2484,face,female,male,0,0.6795,loc102,control,0.2484,258.2517
773,2,114,271.6714,1.3294,face,male,male,1,0.2697,loc102,control,0.3294,259.6714
774,2,115,273.172,1.3288,face,female,female,1,0.2665,loc102,control,0.3288,261.172
775,2,116,274.6731,1.328,face,male,male,1,0.5584,loc102,control,0.328,262.6731
776,2,117,276.174,1.3271,face,male,male,1,0.567,loc102,control,0.3271,264.174
777,2,118,277.6755,1.3257,face,male,female,0,0.2163,loc102,control,0.3257,265.6755
778,2,119,279.1752,1.3259,face,female,male,0,0.5728,loc102,control,0.3259,267.1752
779,2,120,280.6754,1.3254,face,female,male,0,0.313,loc102,control,0.3254,268.6754
781,2,122,292.7587,1.2419,object,manmade,manmade,1,0.63,loc102,control,0.2419,280.7587
782,2,123,294.2602,1.2412,object,natural,natural,1,0.5398,loc102,control,0.2412,282.2602
783,2,124,295.7614,1.2392,object,natural,natural,1,0.6844,loc102,control,0.2392,283.7614
784,2,125,297.1782,1.3227,object,natural,manmade,0,0.2805,loc102,control,0.3227,285.1782
785,2,126,298.6785,1.3217,object,manmade,manmade,1,0.1751,loc102,control,0.3217,286.6785
786,2,127,300.1777,1.3224,object,natural,natural,1,0.3113,loc102,control,0.3224,288.1777
787,2,128,301.6795,1.3217,object,manmade,manmade,1,0.6812,loc102,control,0.3217,289.6795
788,2,129,303.1809,1.3196,object,manmade,manmade,1,0.6884,loc102,control,0.3196,291.1809
789,2,130,304.6822,1.3188,object,natural,natural,1,0.1089,loc102,control,0.3188,292.6822
790,2,131,306.1813,1.3189,object,manmade,manmade,1,0.5782,loc102,control,0.3189,294.1813
792,1,1,12.0042,1.4968,face,female,female,1,0.588,loc103,control,0.4968,0.0042
793,1,2,13.9494,1.0517,face,male,male,1,1.268,loc103,control,0.0517,1.9494
794,1,3,15.0292,1.472,face,female,male,0,0.9654,loc103,control,0.472,3.0292
795,1,4,16.5307,1.4707,face,male,male,1,0.875,loc103,control,0.4707,4.5307
796,1,5,18.0294,1.4712,face,female,female,1,0.6864,loc103,control,0.4712,6.0294
797,1,6,19.5296,1.4717,face,female,female,1,1.0118,loc103,control,0.4717,7.5296
798,1,7,21.0306,1.4698,face,male,male,1,0.9117,loc103,control,0.4698,9.0306
799,1,8,22.5309,1.4695,face,female,female,1,0.7776,loc103,control,0.4695,10.5309
800,1,9,24.031,1.4697,face,male,male,1,0.7538,loc103,control,0.4697,12.031
801,1,10,25.5323,1.4691,face,male,male,1,0.823,loc103,control,0.4691,13.5323
803,1,12,37.5475,1.453,place,outdoor,outdoor,1,0.842,loc103,control,0.453,25.5475
804,1,13,39.0474,1.4541,place,indoor,indoor,1,0.9402,loc103,control,0.4541,27.0474
805,1,14,40.5352,1.4655,place,indoor,indoor,1,0.8684,loc103,control,0.4655,28.5352
806,1,15,42.0345,1.4659,place,indoor,indoor,1,0.9003,loc103,control,0.4659,30.0345
807,1,16,43.5351,1.4654,place,indoor,indoor,1,0.9326,loc103,control,0.4654,31.5351
808,1,17,45.0354,1.4654,place,outdoor,outdoor,1,0.8903,loc103,control,0.4654,33.0354
809,1,18,46.5368,1.4642,place,outdoor,indoor,0,1.0477,loc103,control,0.4642,34.5368
810,1,19,48.0383,1.4619,place,indoor,indoor,1,1.2453,loc103,control,0.4619,36.0383
811,1,20,49.5376,1.4631,place,outdoor,outdoor,1,1.002,loc103,control,0.4631,37.5376
812,1,21,51.0386,1.4619,place,outdoor,outdoor,1,1.0092,loc103,control,0.4619,39.0386
814,1,23,63.0558,1.4458,place,indoor,indoor,1,1.0238,loc103,control,0.4458,51.0558
815,1,24,64.5579,1.4425,place,indoor,indoor,1,0.8766,loc103,control,0.4425,52.5579
816,1,25,66.0413,1.459,place,outdoor,outdoor,1,0.8873,loc103,control,0.459,54.0413
817,1,26,67.5407,1.4601,place,outdoor,outdoor,1,0.9245,loc103,control,0.4601,55.5407
818,1,27,69.0423,1.4581,place,outdoor,outdoor,1,0.9138,loc103,control,0.4581,57.0423
819,1,28,70.5419,1.4592,place,outdoor,outdoor,1,0.8435,loc103,control,0.4592,58.5419
820,1,29,72.0434,1.4574,place,indoor,indoor,1,0.8418,loc103,control,0.4574,60.0434
821,1,30,73.5438,1.4576,place,outdoor,outdoor,1,1.4592,loc103,control,0.4576,61.5438
822,1,31,75.045,1.4556,place,indoor,indoor,1,0.9945,loc103,control,0.4556,63.045
823,1,32,76.5447,1.4557,place,indoor,indoor,1,1.2687,loc103,control,0.4557,64.5447
825,1,34,88.5658,1.4356,object,natural,natural,1,0.9303,loc103,control,0.4356,76.5658
826,1,35,90.0674,1.4342,object,manmade,manmade,1,0.8535,loc103,control,0.4342,78.0674
827,1,36,91.5489,1.4516,object,manmade,manmade,1,0.9972,loc103,control,0.4516,79.5489
828,1,37,93.0472,1.4541,object,natural,natural,1,0.7528,loc103,control,0.4541,81.0472
829,1,38,94.5492,1.4519,object,manmade,manmade,1,0.9975,loc103,control,0.4519,82.5492
830,1,39,96.049,1.4513,object,manmade,manmade,1,1.3743,loc103,control,0.4513,84.049
831,1,40,97.5499,1.4513,object,natural,natural,1,1.1084,loc103,control,0.4513,85.5499
832,1,41,99.0508,1.4505,object,natural,natural,1,0.9919,loc103,control,0.4505,87.0508
833,1,42,100.5516,1.4495,object,natural,natural,1,0.9605,loc103,control,0.4495,88.5516
834,1,43,102.0516,1.4493,object,manmade,manmade,1,0.8416,loc103,control,0.4493,90.0516
836,1,45,114.0759,1.4252,place,outdoor,indoor,0,1.1403,loc103,control,0.4252,102.0759
837,1,46,115.5768,1.4251,place,outdoor,outdoor,1,0.982,loc103,control,0.4251,103.5768
838,1,47,117.0551,1.446,place,outdoor,outdoor,1,0.6253,loc103,control,0.446,105.0551
839,1,48,118.5548,1.4466,place,indoor,indoor,1,0.7213,loc103,control,0.4466,106.5548
840,1,49,120.0556,1.4452,place,indoor,indoor,1,0.8183,loc103,control,0.4452,108.0556
841,1,50,121.5554,1.446,place,indoor,indoor,1,0.6475,loc103,control,0.446,109.5554
842,1,51,123.0569,1.4438,place,indoor,indoor,1,0.9268,loc103,control,0.4438,111.0569
843,1,52,124.5563,1.444,place,outdoor,outdoor,1,0.812,loc103,control,0.444,112.5563
844,1,53,126.0574,1.4435,place,indoor,indoor,1,0.7433,loc103,control,0.4435,114.0574
845,1,54,127.5579,1.4426,place,outdoor,outdoor,1,0.988,loc103,control,0.4426,115.5579
847,1,56,139.5853,1.4153,face,female,female,1,1.074,loc103,control,0.4153,127.5853
848,1,57,141.0858,1.4148,face,female,female,1,0.839,loc103,control,0.4148,129.0858
849,1,58,142.5603,1.441,face,male,male,1,0.664,loc103,control,0.441,130.5603
850,1,59,144.0626,1.4375,face,male,male,1,0.6577,loc103,control,0.4375,132.0626
851,1,60,145.5609,1.4399,face,female,female,1,0.6378,loc103,control,0.4399,133.5609
852,1,61,147.0622,1.4388,face,female,female,1,0.6558,loc103,control,0.4388,135.0622
853,1,62,148.564,1.437,face,male,male,1,0.6182,loc103,control,0.437,136.564
854,1,63,150.0645,1.4357,face,male,male,1,0.6558,loc103,control,0.4357,138.0645
855,1,64,151.5638,1.4374,face,female,female,1,0.7699,loc103,control,0.4374,139.5638
856,1,65,153.0658,1.4354,face,male,male,1,0.9229,loc103,control,0.4354,141.0658
858,1,67,165.0942,1.4065,object,manmade,manmade,1,1.0615,loc103,control,0.4065,153.0942
859,1,68,166.5954,1.4066,object,manmade,manmade,1,0.903,loc103,control,0.4066,154.5954
860,1,69,168.0681,1.4326,object,manmade,manmade,1,0.789,loc103,control,0.4326,156.0681
861,1,70,169.5665,1.4338,object,natural,natural,1,0.7525,loc103,control,0.4338,157.5665
862,1,71,171.0678,1.4324,object,natural,natural,1,0.7533,loc103,control,0.4324,159.0678
863,1,72,172.5676,1.4335,object,manmade,manmade,1,0.6335,loc103,control,0.4335,160.5676
864,1,73,174.071,1.4291,object,manmade,manmade,1,0.6631,loc103,control,0.4291,162.071
865,1,74,175.5692,1.432,object,natural,natural,1,0.8471,loc103,control,0.432,163.5692
866,1,75,177.0712,1.4289,object,natural,natural,1,0.9915,loc103,control,0.4289,165.0712
867,1,76,178.5708,1.4301,object,natural,natural,1,0.9081,loc103,control,0.4301,166.5708
869,1,78,190.6039,1.3961,place,outdoor,indoor,0,0.7748,loc103,control,0.3961,178.6039
870,1,79,192.1047,1.3962,place,indoor,outdoor,0,1.3116,loc103,control,0.3962,180.1047
871,1,80,193.5747,1.4265,place,indoor,indoor,1,0.1197,loc103,control,0.4265,181.5747
872,1,81,195.0737,1.4267,place,indoor,indoor,1,0.8085,loc103,control,0.4267,183.0737
873,1,82,196.5741,1.4272,place,outdoor,outdoor,1,0.8448,loc103,control,0.4272,184.5741
874,1,83,198.0752,1.4253,place,outdoor,outdoor,1,0.7798,loc103,control,0.4253,186.0752
875,1,84,199.5761,1.424,place,indoor,indoor,1,0.9247,loc103,control,0.424,187.5761
876,1,85,201.0754,1.4256,place,outdoor,outdoor,1,0.7912,loc103,control,0.4256,189.0754
877,1,86,202.5768,1.4235,place,outdoor,outdoor,1,0.8675,loc103,control,0.4235,190.5768
878,1,87,204.0778,1.4229,place,indoor,indoor,1,0.9334,loc103,control,0.4229,192.0778
880,1,89,216.1132,1.388,object,natural,natural,1,0.8365,loc103,control,0.388,204.1132
881,1,90,217.6149,1.3852,object,manmade,manmade,1,0.7451,loc103,control,0.3852,205.6149
882,1,91,219.08,1.4213,object,manmade,manmade,1,0.996,loc103,control,0.4213,207.08
883,1,92,220.5808,1.4205,object,natural,natural,1,0.9251,loc103,control,0.4205,208.5808
884,1,93,222.0812,1.4192,object,manmade,manmade,1,0.8347,loc103,control,0.4192,210.0812
885,1,94,223.5816,1.4191,object,manmade,manmade,1,0.9923,loc103,control,0.4191,211.5816
886,1,95,225.0818,1.4192,object,natural,natural,1,0.8283,loc103,control,0.4192,213.0818
887,1,96,226.5832,1.4178,object,natural,natural,1,0.595,loc103,control,0.4178,214.5832
888,1,97,228.0844,1.4166,object,manmade,manmade,1,0.8191,loc103,control,0.4166,216.0844
889,1,98,229.5841,1.4163,object,natural,natural,1,0.9228,loc103,control,0.4163,217.5841
891,1,100,241.6237,1.3767,face,male,male,1,0.9181,loc103,control,0.3767,229.6237
892,1,101,243.1237,1.3774,face,female,female,1,0.6849,loc103,control,0.3774,231.1237
893,1,102,244.5871,1.4143,face,female,female,1,0.7716,loc103,control,0.4143,232.5871
894,1,103,246.0867,1.4138,face,male,male,1,0.6551,loc103,control,0.4138,234.0867
895,1,104,247.5878,1.4136,face,male,male,1,1.0122,loc103,control,0.4136,235.5878
896,1,105,249.0883,1.412,face,male,male,1,0.9608,loc103,control,0.412,237.0883
897,1,106,250.5882,1.4131,face,female,female,1,0.6864,loc103,control,0.4131,238.5882
898,1,107,252.0906,1.4097,face,female,female,1,0.6891,loc103,control,0.4097,240.0906
899,1,108,253.5897,1.4111,face,male,male,1,0.6259,loc103,control,0.4111,241.5897
900,1,109,255.09,1.4107,face,female,female,1,0.725,loc103,control,0.4107,243.09
902,1,111,267.1337,1.3681,face,male,male,1,0.7617,loc103,control,0.3681,255.1337
903,1,112,268.6347,1.3669,face,male,male,1,0.6392,loc103,control,0.3669,256.6347
904,1,113,270.0939,1.4065,face,male,male,1,0.6445,loc103,control,0.4065,258.0939
905,1,114,271.5933,1.4069,face,female,female,1,0.6284,loc103,control,0.4069,259.5933
906,1,115,273.093,1.4076,face,male,male,1,0.6068,loc103,control,0.4076,261.093
907,1,116,274.5946,1.4062,face,female,female,1,0.723,loc103,control,0.4062,262.5946
908,1,117,276.0962,1.4051,face,female,male,0,0.9603,loc103,control,0.4051,264.0962
909,1,118,277.5966,1.4047,face,male,male,1,0.9567,loc103,control,0.4047,265.5966
910,1,119,279.0969,1.404,face,female,female,1,0.6768,loc103,control,0.404,267.0969
911,1,120,280.5976,1.4032,face,female,female,1,0.7583,loc103,control,0.4032,268.5976
913,1,122,292.643,1.3581,object,natural,natural,1,0.8204,loc103,control,0.3581,280.643
914,1,123,294.1442,1.3578,object,natural,natural,1,0.8191,loc103,control,0.3578,282.1442
915,1,124,295.6004,1.4008,object,natural,natural,1,0.9138,loc103,control,0.4008,283.6004
916,1,125,297.1002,1.4003,object,natural,natural,1,0.658,loc103,control,0.4003,285.1002
917,1,126,298.6,1.4011,object,manmade,manmade,1,0.774,loc103,control,0.4011,286.6
918,1,127,300.1007,1.3995,object,manmade,manmade,1,0.757,loc103,control,0.3995,288.1007
919,1,128,301.6007,1.3998,object,manmade,manmade,1,0.8611,loc103,control,0.3998,289.6007
920,1,129,303.1019,1.3982,object,manmade,manmade,1,0.7588,loc103,control,0.3982,291.1019
921,1,130,304.6029,1.3978,object,natural,natural,1,0.7089,loc103,control,0.3978,292.6029
922,1,131,306.1037,1.3966,object,manmade,manmade,1,0.7412,loc103,control,0.3966,294.1037
924,2,1,12.0022,1.4987,face,male,male,1,0.656,loc103,control,0.4987,0.0022
925,2,2,13.662,1.3392,face,male,male,1,0.592,loc103,control,0.3392,1.662
926,2,3,15.1065,1.3942,face,female,female,1,0.559,loc103,control,0.3942,3.1065
927,2,4,16.6061,1.3951,face,female,female,1,0.5091,loc103,control,0.3951,4.6061
928,2,5,18.1075,1.3939,face,female,female,1,0.5802,loc103,control,0.3939,6.1075
929,2,6,19.6088,1.3916,face,female,female,1,0.6038,loc103,control,0.3916,7.6088
930,2,7,21.1088,1.3921,face,male,male,1,0.5976,loc103,control,0.3921,9.1088
931,2,8,22.61,1.3913,face,male,male,1,0.562,loc103,control,0.3913,10.61
932,2,9,24.1111,1.389,face,male,male,1,0.8163,loc103,control,0.389,12.1111
933,2,10,25.6107,1.3895,face,female,female,1,0.7823,loc103,control,0.3895,13.6107
935,2,12,37.6626,1.3376,face,male,male,1,0.9448,loc103,control,0.3376,25.6626
936,2,13,39.1616,1.3395,face,female,female,1,0.7036,loc103,control,0.3395,27.1616
937,2,14,40.6637,1.3364,face,male,male,1,0.8022,loc103,control,0.3364,28.6637
938,2,15,42.1119,1.3893,face,male,male,1,0.6884,loc103,control,0.3893,30.1119
939,2,16,43.615,1.3856,face,male,male,1,0.6487,loc103,control,0.3856,31.615
940,2,17,45.1148,1.3857,face,female,female,1,0.5718,loc103,control,0.3857,33.1148
941,2,18,46.6144,1.3861,face,female,female,1,0.7385,loc103,control,0.3861,34.6144
942,2,19,48.1156,1.3852,face,female,female,1,0.7399,loc103,control,0.3852,36.1156
943,2,20,49.6171,1.3832,face,male,male,1,0.7597,loc103,control,0.3832,37.6171
944,2,21,51.1168,1.3842,face,female,female,1,0.8689,loc103,control,0.3842,39.1168
946,2,23,63.171,1.3307,place,outdoor,outdoor,1,0.951,loc103,control,0.3307,51.171
947,2,24,64.6732,1.3278,place,indoor,indoor,1,0.8321,loc103,control,0.3278,52.6732
948,2,25,66.1739,1.3268,place,indoor,indoor,1,0.8402,loc103,control,0.3268,54.1739
949,2,26,67.6185,1.382,place,outdoor,outdoor,1,0.8177,loc103,control,0.382,55.6185
950,2,27,69.1201,1.38,place,indoor,indoor,1,0.7925,loc103,control,0.38,57.1201
951,2,28,70.6201,1.3801,place,indoor,indoor,1,0.8919,loc103,control,0.3801,58.6201
952,2,29,72.121,1.3797,place,outdoor,outdoor,1,0.7348,loc103,control,0.3797,60.121
953,2,30,73.6215,1.3793,place,outdoor,outdoor,1,0.9361,loc103,control,0.3793,61.6215
954,2,31,75.1232,1.3776,place,outdoor,outdoor,1,0.762,loc103,control,0.3776,63.1232
955,2,32,76.6236,1.3777,place,indoor,indoor,1,0.9609,loc103,control,0.3777,64.6236
957,2,34,88.6814,1.3192,face,female,female,1,1.3553,loc103,control,0.3192,76.6814
958,2,35,90.1813,1.3199,face,male,male,1,0.7688,loc103,control,0.3199,78.1813
959,2,36,91.683,1.3172,face,female,female,1,0.6807,loc103,control,0.3172,79.683
960,2,37,93.1248,1.3755,face,male,male,1,0.5744,loc103,control,0.3755,81.1248
961,2,38,94.6262,1.3742,face,female,female,1,0.7109,loc103,control,0.3742,82.6262
962,2,39,96.1277,1.3733,face,female,female,1,0.6825,loc103,control,0.3733,84.1277
963,2,40,97.6298,1.371,face,female,female,1,0.7354,loc103,control,0.371,85.6298
964,2,41,99.1282,1.3722,face,male,male,1,0.5566,loc103,control,0.3722,87.1282
965,2,42,100.6294,1.3707,face,male,female,0,0.9179,loc103,control,0.3707,88.6294
966,2,43,102.1293,1.3712,face,male,male,1,0.7298,loc103,control,0.3712,90.1293
968,2,45,114.1906,1.311,place,outdoor,outdoor,1,1.2259,loc103,control,0.311,102.1906
969,2,46,115.6921,1.3098,place,outdoor,outdoor,1,0.8457,loc103,control,0.3098,103.6921
970,2,47,117.1935,1.3069,place,indoor,indoor,1,1.0989,loc103,control,0.3069,105.1935
971,2,48,118.6322,1.3684,place,indoor,indoor,1,1.0176,loc103,control,0.3684,106.6322
972,2,49,120.1326,1.3676,place,indoor,indoor,1,0.8261,loc103,control,0.3676,108.1326
973,2,50,121.6341,1.3663,place,outdoor,outdoor,1,0.8227,loc103,control,0.3663,109.6341
974,2,51,123.1337,1.3676,place,indoor,indoor,1,0.6873,loc103,control,0.3676,111.1337
975,2,52,124.6364,1.3642,place,outdoor,outdoor,1,1.3693,loc103,control,0.3642,112.6364
976,2,53,126.137,1.3636,place,outdoor,indoor,0,0.7288,loc103,control,0.3636,114.137
977,2,54,127.6359,1.3654,place,indoor,outdoor,0,0.6201,loc103,control,0.3654,115.6359
979,2,56,139.6997,1.3021,place,indoor,indoor,1,1.0174,loc103,control,0.3021,127.6997
980,2,57,141.202,1.2999,place,outdoor,outdoor,1,0.8722,loc103,control,0.2999,129.202
981,2,58,142.7028,1.2985,place,indoor,indoor,1,1.0767,loc103,control,0.2985,130.7028
982,2,59,144.14,1.3614,place,indoor,indoor,1,1.0555,loc103,control,0.3614,132.14
983,2,60,145.6397,1.3608,place,outdoor,outdoor,1,0.7662,loc103,control,0.3608,133.6397
984,2,61,147.1408,1.3595,place,outdoor,outdoor,1,0.9454,loc103,control,0.3595,135.1408
985,2,62,148.6414,1.3597,place,outdoor,outdoor,1,0.8153,loc103,control,0.3597,136.6414
986,2,63,150.1428,1.3573,place,indoor,indoor,1,0.7146,loc103,control,0.3573,138.1428
987,2,64,151.6409,1.3594,place,outdoor,outdoor,1,0.8585,loc103,control,0.3594,139.6409
988,2,65,153.1415,1.3589,place,indoor,indoor,1,0.7879,loc103,control,0.3589,141.1415
990,2,67,165.2104,1.2903,object,manmade,manmade,1,1.1092,loc103,control,0.2903,153.2104
991,2,68,166.7106,1.2896,object,natural,natural,1,0.9245,loc103,control,0.2896,154.7106
992,2,69,168.2107,1.2906,object,natural,natural,1,0.8773,loc103,control,0.2906,156.2107
993,2,70,169.6459,1.355,object,natural,natural,1,0.8507,loc103,control,0.355,157.6459
994,2,71,171.1455,1.3549,object,manmade,manmade,1,0.6876,loc103,control,0.3549,159.1455
995,2,72,172.6458,1.3543,object,manmade,manmade,1,0.628,loc103,control,0.3543,160.6458
996,2,73,174.1485,1.3526,object,natural,natural,1,0.8049,loc103,control,0.3526,162.1485
997,2,74,175.6484,1.3521,object,natural,natural,1,0.8383,loc103,control,0.3521,163.6484
998,2,75,177.1476,1.3527,object,manmade,manmade,1,0.9493,loc103,control,0.3527,165.1476
999,2,76,178.6483,1.3523,object,manmade,manmade,1,1.3425,loc103,control,0.3523,166.6483
1001,2,78,190.7205,1.2815,face,male,male,1,1.0616,loc103,control,0.2815,178.7205
1002,2,79,192.2211,1.281,face,female,female,1,0.7978,loc103,control,0.281,180.2211
1003,2,80,193.7217,1.2797,face,male,male,1,0.8576,loc103,control,0.2797,181.7217
1004,2,81,195.1517,1.3491,face,female,female,1,0.6065,loc103,control,0.3491,183.1517
1005,2,82,196.6517,1.3488,face,male,male,1,0.6356,loc103,control,0.3488,184.6517
1006,2,83,198.1519,1.3487,face,female,female,1,0.7227,loc103,control,0.3487,186.1519
1007,2,84,199.6549,1.3461,face,male,male,1,0.8604,loc103,control,0.3461,187.6549
1008,2,85,201.1535,1.3467,face,female,female,1,0.672,loc103,control,0.3467,189.1535
1009,2,86,202.657,1.3437,face,male,male,1,0.7862,loc103,control,0.3437,190.657
1010,2,87,204.1555,1.3448,face,female,female,1,0.5935,loc103,control,0.3448,192.1555
1012,2,89,216.2293,1.272,object,natural,natural,1,1.0566,loc103,control,0.272,204.2293
1013,2,90,217.73,1.2712,object,natural,natural,1,0.9456,loc103,control,0.2712,205.73
1014,2,91,219.2304,1.2706,object,manmade,manmade,1,0.9983,loc103,control,0.2706,207.2304
1015,2,92,220.6578,1.3432,object,natural,natural,1,0.7995,loc103,control,0.3432,208.6578
1016,2,93,222.1578,1.3426,object,manmade,manmade,1,0.7393,loc103,control,0.3426,210.1578
1017,2,94,223.6611,1.3392,object,manmade,natural,0,0.7024,loc103,control,0.3392,211.6611
1018,2,95,225.1598,1.3406,object,natural,natural,1,0.7562,loc103,control,0.3406,213.1598
1019,2,96,226.6601,1.3412,object,manmade,manmade,1,1.3652,loc103,control,0.3412,214.6601
1020,2,97,228.1633,1.3376,object,natural,natural,1,0.7296,loc103,control,0.3376,216.1633
1021,2,98,229.6619,1.3395,object,manmade,manmade,1,0.8248,loc103,control,0.3395,217.6619
1023,2,100,241.7389,1.2616,place,indoor,indoor,1,0.9258,loc103,control,0.2616,229.7389
1024,2,101,243.2385,1.2623,place,indoor,indoor,1,0.8274,loc103,control,0.2623,231.2385
1025,2,102,244.7398,1.261,place,outdoor,indoor,0,0.8427,loc103,control,0.261,232.7398
1026,2,103,246.1643,1.3359,place,outdoor,outdoor,1,0.8313,loc103,control,0.3359,234.1643
1027,2,104,247.6647,1.3357,place,indoor,indoor,1,0.7751,loc103,control,0.3357,235.6647
1028,2,105,249.1665,1.3344,place,outdoor,outdoor,1,0.8321,loc103,control,0.3344,237.1665
1029,2,106,250.668,1.3329,place,indoor,indoor,1,0.8792,loc103,control,0.3329,238.668
1030,2,107,252.1668,1.3339,place,outdoor,outdoor,1,0.7359,loc103,control,0.3339,240.1668
1031,2,108,253.6675,1.3326,place,outdoor,outdoor,1,0.9354,loc103,control,0.3326,241.6675
1032,2,109,255.1673,1.3331,place,indoor,indoor,1,0.8952,loc103,control,0.3331,243.1673
1034,2,111,267.248,1.2533,object,manmade,manmade,1,1.111,loc103,control,0.2533,255.248
1035,2,112,268.7492,1.2515,object,manmade,manmade,1,0.8943,loc103,control,0.2515,256.7492
1036,2,113,270.2487,1.2519,object,natural,natural,1,0.8602,loc103,control,0.2519,258.2487
1037,2,114,271.6708,1.3294,object,natural,natural,1,0.9323,loc103,control,0.3294,259.6708
1038,2,115,273.1709,1.3296,object,natural,natural,1,0.7456,loc103,control,0.3296,261.1709
1039,2,116,274.6715,1.3295,object,manmade,manmade,1,0.735,loc103,control,0.3295,262.6715
1040,2,117,276.1731,1.3277,object,natural,natural,1,0.8068,loc103,control,0.3277,264.1731
1041,2,118,277.6749,1.3257,object,manmade,manmade,1,0.7612,loc103,control,0.3257,265.6749
1042,2,119,279.1741,1.3267,object,natural,natural,1,0.7601,loc103,control,0.3267,267.1741
1043,2,120,280.6745,1.3259,object,manmade,manmade,1,0.7633,loc103,control,0.3259,268.6745
1045,2,122,292.7569,1.2448,object,natural,natural,1,0.9985,loc103,control,0.2448,280.7569
1046,2,123,294.259,1.2414,object,manmade,manmade,1,0.8202,loc103,control,0.2414,282.259
1047,2,124,295.7579,1.2428,object,manmade,manmade,1,1.0042,loc103,control,0.2428,283.7579
1048,2,125,297.1781,1.323,object,manmade,manmade,1,0.8345,loc103,control,0.323,285.1781
1049,2,126,298.6799,1.3211,object,natural,natural,1,0.7693,loc103,control,0.3211,286.6799
1050,2,127,300.1784,1.3218,object,natural,natural,1,0.7913,loc103,control,0.3218,288.1784
1051,2,128,301.6803,1.3205,object,natural,natural,1,0.6886,loc103,control,0.3205,289.6803
1052,2,129,303.1799,1.3215,object,manmade,manmade,1,0.778,loc103,control,0.3215,291.1799
1053,2,130,304.6829,1.3175,object,natural,natural,1,0.6519,loc103,control,0.3175,292.6829
1054,2,131,306.181,1.3199,object,manmade,manmade,1,0.7944,loc103,control,0.3199,294.181
1056,1,1,12.0034,1.4977,object,natural,natural,1,0.7359,loc104,control,0.4977,0.0034
1057,1,2,13.6721,1.3286,object,manmade,natural,0,0.8721,loc104,control,0.3286,1.6721
1058,1,3,15.027,1.4741,object,manmade,manmade,1,0.6578,loc104,control,0.4741,3.027
1059,1,4,16.5286,1.4715,object,natural,manmade,0,0.5552,loc104,control,0.4715,4.5286
1060,1,5,18.0279,1.473,object,natural,natural,1,0.6472,loc104,control,0.473,6.0279
1061,1,6,19.5298,1.4709,object,manmade,natural,0,0.6683,loc104,control,0.4709,7.5298
1062,1,7,21.0296,1.4706,object,manmade,manmade,1,0.775,loc104,control,0.4706,9.0296
1063,1,8,22.5308,1.4697,object,natural,natural,1,0.546,loc104,control,0.4697,10.5308
1064,1,9,24.0311,1.4699,object,manmade,manmade,1,0.6485,loc104,control,0.4699,12.0311
1065,1,10,25.5327,1.4686,object,natural,natural,1,0.5641,loc104,control,0.4686,13.5327
1067,1,12,37.5462,1.455,object,manmade,manmade,1,1.2222,loc104,control,0.455,25.5462
1068,1,13,39.0478,1.4534,object,natural,natural,1,0.5313,loc104,control,0.4534,27.0478
1069,1,14,40.5354,1.4659,object,natural,natural,1,0.6007,loc104,control,0.4659,28.5354
1070,1,15,42.0347,1.4662,object,natural,natural,1,0.5298,loc104,control,0.4662,30.0347
1071,1,16,43.536,1.4649,object,natural,natural,1,0.4314,loc104,control,0.4649,31.536
1072,1,17,45.0355,1.4657,object,manmade,manmade,1,0.5665,loc104,control,0.4657,33.0355
1073,1,18,46.5378,1.4624,object,natural,natural,1,0.5937,loc104,control,0.4624,34.5378
1074,1,19,48.0373,1.4629,object,manmade,manmade,1,0.6723,loc104,control,0.4629,36.0373
1075,1,20,49.5381,1.4621,object,manmade,manmade,1,0.6668,loc104,control,0.4621,37.5381
1076,1,21,51.0375,1.4632,object,manmade,manmade,1,0.5993,loc104,control,0.4632,39.0375
1078,1,23,63.0554,1.4459,place,indoor,indoor,1,1.0296,loc104,control,0.4459,51.0554
1079,1,24,64.5574,1.4442,place,outdoor,outdoor,1,0.5433,loc104,control,0.4442,52.5574
1080,1,25,66.042,1.4589,place,indoor,indoor,1,0.4305,loc104,control,0.4589,54.042
1081,1,26,67.5408,1.4597,place,outdoor,indoor,0,0.5102,loc104,control,0.4597,55.5408
1082,1,27,69.0413,1.4598,place,outdoor,outdoor,1,0.716,loc104,control,0.4598,57.0413
1083,1,28,70.5427,1.4579,place,indoor,indoor,1,0.6041,loc104,control,0.4579,58.5427
1084,1,29,72.0433,1.4569,place,outdoor,outdoor,1,0.5571,loc104,control,0.4569,60.0433
1085,1,30,73.5433,1.4579,place,indoor,indoor,1,0.6169,loc104,control,0.4579,61.5433
1086,1,31,75.0447,1.4566,place,indoor,indoor,1,0.7246,loc104,control,0.4566,63.0447
1087,1,32,76.545,1.4558,place,outdoor,outdoor,1,0.6975,loc104,control,0.4558,64.545
1089,1,34,88.5657,1.4345,object,natural,natural,1,0.56,loc104,control,0.4345,76.5657
1090,1,35,90.0657,1.4355,object,manmade,manmade,1,0.4034,loc104,control,0.4355,78.0657
1091,1,36,91.548,1.4531,object,manmade,manmade,1,0.5577,loc104,control,0.4531,79.548
1092,1,37,93.0474,1.4535,object,natural,natural,1,0.5146,loc104,control,0.4535,81.0474
1093,1,38,94.5489,1.4512,object,manmade,manmade,1,0.5248,loc104,control,0.4512,82.5489
1094,1,39,96.048,1.4525,object,manmade,manmade,1,0.5359,loc104,control,0.4525,84.048
1095,1,40,97.5494,1.4507,object,natural,natural,1,0.3833,loc104,control,0.4507,85.5494
1096,1,41,99.049,1.4523,object,natural,natural,1,0.4272,loc104,control,0.4523,87.049
1097,1,42,100.5521,1.4492,object,natural,natural,1,0.4055,loc104,control,0.4492,88.5521
1098,1,43,102.0525,1.4485,object,manmade,manmade,1,0.6202,loc104,control,0.4485,90.0525
1100,1,45,114.0747,1.4269,object,manmade,manmade,1,0.8203,loc104,control,0.4269,102.0747
1101,1,46,115.5766,1.4255,object,natural,natural,1,0.3433,loc104,control,0.4255,103.5766
1102,1,47,117.0779,1.4223,object,natural,natural,1,0.5715,loc104,control,0.4223,105.0779
1103,1,48,118.5528,1.4477,object,natural,natural,1,0.5438,loc104,control,0.4477,106.5528
1104,1,49,120.0541,1.4462,object,manmade,manmade,1,0.4204,loc104,control,0.4462,108.0541
1105,1,50,121.5548,1.4453,object,manmade,manmade,1,0.428,loc104,control,0.4453,109.5548
1106,1,51,123.0556,1.4445,object,natural,natural,1,0.3568,loc104,control,0.4445,111.0556
1107,1,52,124.5559,1.4447,object,manmade,manmade,1,0.5672,loc104,control,0.4447,112.5559
1108,1,53,126.0574,1.4434,object,manmade,manmade,1,0.675,loc104,control,0.4434,114.0574
1109,1,54,127.5573,1.4438,object,natural,natural,1,0.505,loc104,control,0.4438,115.5573
1111,1,56,139.5846,1.4162,face,male,male,1,0.6172,loc104,control,0.4162,127.5846
1112,1,57,141.0852,1.4164,face,male,NR,0,999.5,loc104,control,0.4164,129.0852
1113,1,58,142.5869,1.4141,face,female,female,1,0.5165,loc104,control,0.4141,130.5869
1114,1,59,144.0603,1.4407,face,female,female,1,0.3958,loc104,control,0.4407,132.0603
1115,1,60,145.5605,1.4407,face,female,female,1,0.3388,loc104,control,0.4407,133.5605
1116,1,61,147.0617,1.4387,face,male,male,1,0.5396,loc104,control,0.4387,135.0617
1117,1,62,148.5624,1.4389,face,female,male,0,0.5794,loc104,control,0.4389,136.5624
1118,1,63,150.0635,1.4371,face,male,male,1,0.6318,loc104,control,0.4371,138.0635
1119,1,64,151.5634,1.4379,face,male,male,1,0.5088,loc104,control,0.4379,139.5634
1120,1,65,153.0644,1.437,face,female,female,1,0.415,loc104,control,0.437,141.0644
1122,1,67,165.094,1.4066,place,outdoor,outdoor,1,0.5511,loc104,control,0.4066,153.094
1123,1,68,166.5946,1.4074,place,outdoor,outdoor,1,0.5495,loc104,control,0.4074,154.5946
1124,1,69,168.0967,1.4046,place,indoor,indoor,1,0.5602,loc104,control,0.4046,156.0967
1125,1,70,169.5666,1.4347,place,outdoor,indoor,0,0.5624,loc104,control,0.4347,157.5666
1126,1,71,171.068,1.4335,place,outdoor,outdoor,1,0.5543,loc104,control,0.4335,159.068
1127,1,72,172.569,1.4319,place,indoor,indoor,1,0.3721,loc104,control,0.4319,160.569
1128,1,73,174.0691,1.432,place,indoor,indoor,1,0.5923,loc104,control,0.432,162.0691
1129,1,74,175.57,1.4313,place,indoor,indoor,1,0.5634,loc104,control,0.4313,163.57
1130,1,75,177.0701,1.4305,place,outdoor,outdoor,1,0.4054,loc104,control,0.4305,165.0701
1131,1,76,178.5701,1.4302,place,indoor,indoor,1,0.6832,loc104,control,0.4302,166.5701
1133,1,78,190.603,1.3975,face,male,male,1,0.5518,loc104,control,0.3975,178.603
1134,1,79,192.1042,1.3969,face,female,male,0,0.6556,loc104,control,0.3969,180.1042
1135,1,80,193.6056,1.3958,face,male,male,1,0.6109,loc104,control,0.3958,181.6056
1136,1,81,195.074,1.4268,face,female,female,1,0.3506,loc104,control,0.4268,183.074
1137,1,82,196.574,1.4267,face,male,male,1,0.5313,loc104,control,0.4267,184.574
1138,1,83,198.0752,1.4262,face,female,female,1,0.3409,loc104,control,0.4262,186.0752
1139,1,84,199.5753,1.4255,face,female,female,1,0.3543,loc104,control,0.4255,187.5753
1140,1,85,201.0758,1.4243,face,female,female,1,0.384,loc104,control,0.4243,189.0758
1141,1,86,202.5753,1.4251,face,male,NR,0,999.5,loc104,control,0.4251,190.5753
1142,1,87,204.0779,1.4231,face,male,NR,0,999.5,loc104,control,0.4231,192.0779
1144,1,89,216.1139,1.3868,face,male,male,1,0.64,loc104,control,0.3868,204.1139
1145,1,90,217.6136,1.3874,face,female,female,1,0.3708,loc104,control,0.3874,205.6136
1146,1,91,219.1148,1.3863,face,male,male,1,0.5226,loc104,control,0.3863,207.1148
1147,1,92,220.5801,1.4206,face,female,female,1,0.5305,loc104,control,0.4206,208.5801
1148,1,93,222.0816,1.4192,face,male,male,1,0.5732,loc104,control,0.4192,210.0816
1149,1,94,223.581,1.4193,face,female,NR,0,999.5,loc104,control,0.4193,211.581
1150,1,95,225.0824,1.418,face,female,female,1,0.5231,loc104,control,0.418,213.0824
1151,1,96,226.5822,1.4189,face,male,male,1,0.5212,loc104,control,0.4189,214.5822
1152,1,97,228.0837,1.4167,face,female,female,1,0.547,loc104,control,0.4167,216.0837
1153,1,98,229.5831,1.4171,face,male,male,1,0.5191,loc104,control,0.4171,217.5831
1155,1,100,241.6222,1.3794,place,indoor,indoor,1,0.7921,loc104,control,0.3794,229.6222
1156,1,101,243.1254,1.3755,place,indoor,indoor,1,0.6966,loc104,control,0.3755,231.1254
1157,1,102,244.6241,1.3768,place,indoor,indoor,1,0.5916,loc104,control,0.3768,232.6241
1158,1,103,246.0858,1.4155,place,indoor,NR,0,999.5,loc104,control,0.4155,234.0858
1159,1,104,247.5882,1.413,place,outdoor,outdoor,1,0.5063,loc104,control,0.413,235.5882
1160,1,105,249.0874,1.4137,place,outdoor,outdoor,1,0.3834,loc104,control,0.4137,237.0874
1161,1,106,250.589,1.4116,place,outdoor,outdoor,1,0.3765,loc104,control,0.4116,238.589
1162,1,107,252.0888,1.4126,place,outdoor,outdoor,1,0.3776,loc104,control,0.4126,240.0888
1163,1,108,253.5895,1.4113,place,outdoor,outdoor,1,0.5175,loc104,control,0.4113,241.5895
1164,1,109,255.0899,1.4115,place,indoor,indoor,1,0.3466,loc104,control,0.4115,243.0899
1166,1,111,267.1325,1.3679,face,male,male,1,0.6725,loc104,control,0.3679,255.1325
1167,1,112,268.6323,1.368,face,male,male,1,0.5311,loc104,control,0.368,256.6323
1168,1,113,270.1328,1.3682,face,male,male,1,0.5403,loc104,control,0.3682,258.1328
1169,1,114,271.5935,1.4068,face,male,male,1,0.3603,loc104,control,0.4068,259.5935
1170,1,115,273.093,1.4072,face,female,female,1,0.3339,loc104,control,0.4072,261.093
1171,1,116,274.5934,1.4074,face,female,female,1,0.5313,loc104,control,0.4074,262.5934
1172,1,117,276.0955,1.4057,face,female,female,1,0.5303,loc104,control,0.4057,264.0955
1173,1,118,277.5958,1.4046,face,male,male,1,0.5301,loc104,control,0.4046,265.5958
1174,1,119,279.0956,1.4057,face,female,female,1,0.6114,loc104,control,0.4057,267.0956
1175,1,120,280.5973,1.4032,face,female,female,1,0.5233,loc104,control,0.4032,268.5973
1177,1,122,292.6418,1.3594,place,outdoor,outdoor,1,0.7685,loc104,control,0.3594,280.6418
1178,1,123,294.1429,1.3589,place,outdoor,outdoor,1,0.5684,loc104,control,0.3589,282.1429
1179,1,124,295.6442,1.356,place,indoor,indoor,1,0.7789,loc104,control,0.356,283.6442
1180,1,125,297.0992,1.4015,place,indoor,indoor,1,0.7445,loc104,control,0.4015,285.0992
1181,1,126,298.5996,1.4006,place,outdoor,outdoor,1,0.5999,loc104,control,0.4006,286.5996
1182,1,127,300.0993,1.4018,place,indoor,indoor,1,0.5358,loc104,control,0.4018,288.0993
1183,1,128,301.6018,1.3994,place,outdoor,outdoor,1,0.3898,loc104,control,0.3994,289.6018
1184,1,129,303.1009,1.4004,place,outdoor,outdoor,1,0.5948,loc104,control,0.4004,291.1009
1185,1,130,304.6022,1.3981,place,indoor,indoor,1,0.5147,loc104,control,0.3981,292.6022
1186,1,131,306.1022,1.3981,place,indoor,outdoor,0,0.5986,loc104,control,0.3981,294.1022
1188,2,1,12.0019,1.4999,face,male,male,1,0.5086,loc104,control,0.4999,0.0019
1189,2,2,13.6632,1.3372,face,female,NR,0,999.5,loc104,control,0.3372,1.6632
1190,2,3,15.1068,1.3935,face,female,female,1,0.3303,loc104,control,0.3935,3.1068
1191,2,4,16.605,1.3963,face,female,female,1,0.3386,loc104,control,0.3963,4.605
1192,2,5,18.1073,1.3937,face,male,male,1,0.3762,loc104,control,0.3937,6.1073
1193,2,6,19.6076,1.3926,face,male,NR,0,999.5,loc104,control,0.3926,7.6076
1194,2,7,21.1077,1.3927,face,male,male,1,0.5162,loc104,control,0.3927,9.1077
1195,2,8,22.6085,1.3927,face,male,male,1,0.5477,loc104,control,0.3927,10.6085
1196,2,9,24.1106,1.3902,face,female,female,1,0.578,loc104,control,0.3902,12.1106
1197,2,10,25.6106,1.3906,face,female,NR,0,999.5,loc104,control,0.3906,13.6106
1199,2,12,37.6623,1.3388,face,female,female,1,0.6785,loc104,control,0.3388,25.6623
1200,2,13,39.1628,1.3378,face,male,male,1,0.5778,loc104,control,0.3378,27.1628
1201,2,14,40.6629,1.3384,face,female,female,1,0.2948,loc104,control,0.3384,28.6629
1202,2,15,42.113,1.3873,face,male,male,1,0.516,loc104,control,0.3873,30.113
1203,2,16,43.6125,1.3878,face,male,male,1,0.5979,loc104,control,0.3878,31.6125
1204,2,17,45.1129,1.388,face,male,male,1,0.5564,loc104,control,0.388,33.1129
1205,2,18,46.6148,1.386,face,female,female,1,0.5435,loc104,control,0.386,34.6148
1206,2,19,48.116,1.3848,face,female,female,1,0.6554,loc104,control,0.3848,36.116
1207,2,20,49.6155,1.3854,face,female,female,1,0.5883,loc104,control,0.3854,37.6155
1208,2,21,51.1185,1.382,face,male,male,1,0.5077,loc104,control,0.382,39.1185
1210,2,23,63.1719,1.3301,object,natural,natural,1,0.6606,loc104,control,0.3301,51.1719
1211,2,24,64.6729,1.3279,object,natural,natural,1,0.6332,loc104,control,0.3279,52.6729
1212,2,25,66.1725,1.3277,object,natural,natural,1,0.5159,loc104,control,0.3277,54.1725
1213,2,26,67.6181,1.383,object,natural,natural,1,0.3524,loc104,control,0.383,55.6181
1214,2,27,69.1197,1.3804,object,manmade,manmade,1,0.3563,loc104,control,0.3804,57.1197
1215,2,28,70.6195,1.3811,object,manmade,manmade,1,0.5287,loc104,control,0.3811,58.6195
1216,2,29,72.1214,1.3788,object,manmade,manmade,1,0.5141,loc104,control,0.3788,60.1214
1217,2,30,73.6208,1.3798,object,natural,natural,1,0.3679,loc104,control,0.3798,61.6208
1218,2,31,75.1233,1.3776,object,manmade,manmade,1,0.5347,loc104,control,0.3776,63.1233
1219,2,32,76.6235,1.3777,object,manmade,manmade,1,0.6489,loc104,control,0.3777,64.6235
1221,2,34,88.6813,1.32,place,outdoor,outdoor,1,0.7617,loc104,control,0.32,76.6813
1222,2,35,90.1821,1.3198,place,indoor,indoor,1,0.6001,loc104,control,0.3198,78.1821
1223,2,36,91.6837,1.3173,place,outdoor,outdoor,1,0.5801,loc104,control,0.3173,79.6837
1224,2,37,93.1267,1.3739,place,outdoor,outdoor,1,0.6998,loc104,control,0.3739,81.1267
1225,2,38,94.6266,1.3742,place,indoor,indoor,1,0.6373,loc104,control,0.3742,82.6266
1226,2,39,96.127,1.3734,place,indoor,outdoor,0,0.5274,loc104,control,0.3734,84.127
1227,2,40,97.6269,1.3741,place,outdoor,outdoor,1,0.5992,loc104,control,0.3741,85.6269
1228,2,41,99.1289,1.3721,place,indoor,indoor,1,0.6019,loc104,control,0.3721,87.1289
1229,2,42,100.6292,1.3709,place,indoor,indoor,1,0.6184,loc104,control,0.3709,88.6292
1230,2,43,102.1288,1.3722,place,outdoor,outdoor,1,0.6438,loc104,control,0.3722,90.1288
1232,2,45,114.1904,1.3102,place,indoor,indoor,1,1.034,loc104,control,0.3102,102.1904
1233,2,46,115.6909,1.31,place,outdoor,outdoor,1,0.639,loc104,control,0.31,103.6909
1234,2,47,117.1914,1.3095,place,outdoor,outdoor,1,0.6795,loc104,control,0.3095,105.1914
1235,2,48,118.6347,1.3661,place,indoor,indoor,1,0.5834,loc104,control,0.3661,106.6347
1236,2,49,120.1346,1.3665,place,outdoor,outdoor,1,0.5932,loc104,control,0.3665,108.1346
1237,2,50,121.6336,1.367,place,indoor,indoor,1,0.6283,loc104,control,0.367,109.6336
1238,2,51,123.1335,1.3677,place,indoor,indoor,1,0.6794,loc104,control,0.3677,111.1335
1239,2,52,124.6365,1.3639,place,indoor,indoor,1,0.7983,loc104,control,0.3639,112.6365
1240,2,53,126.1352,1.3661,place,outdoor,outdoor,1,0.6574,loc104,control,0.3661,114.1352
1241,2,54,127.6356,1.3646,place,outdoor,outdoor,1,0.9064,loc104,control,0.3646,115.6356
1243,2,56,139.7002,1.3014,face,male,male,1,0.7854,loc104,control,0.3014,127.7002
1244,2,57,141.2012,1.3,face,female,female,1,0.6558,loc104,control,0.3,129.2012
1245,2,58,142.7016,1.2989,face,male,male,1,0.6473,loc104,control,0.2989,130.7016
1246,2,59,144.1386,1.3627,face,female,female,1,0.3504,loc104,control,0.3627,132.1386
1247,2,60,145.6396,1.361,face,male,male,1,0.5942,loc104,control,0.361,133.6396
1248,2,61,147.1398,1.3612,face,male,male,1,0.6226,loc104,control,0.3612,135.1398
1249,2,62,148.641,1.3593,face,female,female,1,0.5242,loc104,control,0.3593,136.641
1250,2,63,150.1419,1.3585,face,female,female,1,0.5424,loc104,control,0.3585,138.1419
1251,2,64,151.6437,1.3566,face,male,male,1,0.6456,loc104,control,0.3566,139.6437
1252,2,65,153.1416,1.3589,face,female,female,1,0.5035,loc104,control,0.3589,141.1416
1254,2,67,165.2104,1.2901,object,natural,natural,1,0.6904,loc104,control,0.2901,153.2104
1255,2,68,166.7098,1.292,object,natural,natural,1,0.6263,loc104,control,0.292,154.7098
1256,2,69,168.2117,1.2885,object,natural,natural,1,0.6177,loc104,control,0.2885,156.2117
1257,2,70,169.6446,1.3556,object,manmade,manmade,1,0.5175,loc104,control,0.3556,157.6446
1258,2,71,171.1456,1.3556,object,natural,natural,1,0.5115,loc104,control,0.3556,159.1456
1259,2,72,172.6479,1.3529,object,manmade,manmade,1,0.5688,loc104,control,0.3529,160.6479
1260,2,73,174.1473,1.3529,object,manmade,manmade,1,0.7866,loc104,control,0.3529,162.1473
1261,2,74,175.6474,1.3527,object,manmade,manmade,1,0.7277,loc104,control,0.3527,163.6474
1262,2,75,177.1478,1.3523,object,manmade,manmade,1,0.702,loc104,control,0.3523,165.1478
1263,2,76,178.649,1.3513,object,natural,natural,1,0.6287,loc104,control,0.3513,166.649
1265,2,78,190.7194,1.2811,face,male,male,1,0.6935,loc104,control,0.2811,178.7194
1266,2,79,192.2191,1.2816,face,male,male,1,0.6569,loc104,control,0.2816,180.2191
1267,2,80,193.7199,1.2813,face,female,female,1,0.5832,loc104,control,0.2813,181.7199
1268,2,81,195.1526,1.3476,face,female,female,1,0.5911,loc104,control,0.3476,183.1526
1269,2,82,196.6532,1.3472,face,female,female,1,0.5583,loc104,control,0.3472,184.6532
1270,2,83,198.1525,1.3483,face,male,male,1,0.6165,loc104,control,0.3483,186.1525
1271,2,84,199.6532,1.3474,face,female,NR,0,999.5,loc104,control,0.3474,187.6532
1272,2,85,201.1536,1.3465,face,female,female,1,0.6748,loc104,control,0.3465,189.1536
1273,2,86,202.6551,1.3453,face,male,male,1,0.777,loc104,control,0.3453,190.6551
1274,2,87,204.155,1.3454,face,male,male,1,0.733,loc104,control,0.3454,192.155
1276,2,89,216.2296,1.2721,place,outdoor,outdoor,1,0.8143,loc104,control,0.2721,204.2296
1277,2,90,217.7301,1.2704,place,outdoor,outdoor,1,0.9655,loc104,control,0.2704,205.7301
1278,2,91,219.229,1.2713,place,outdoor,outdoor,1,0.8598,loc104,control,0.2713,207.229
1279,2,92,220.6572,1.3437,place,indoor,indoor,1,0.8174,loc104,control,0.3437,208.6572
1280,2,93,222.1585,1.3419,place,outdoor,outdoor,1,0.7222,loc104,control,0.3419,210.1585
1281,2,94,223.6581,1.3425,place,indoor,indoor,1,0.9298,loc104,control,0.3425,211.6581
1282,2,95,225.1608,1.3393,place,indoor,indoor,1,0.8293,loc104,control,0.3393,213.1608
1283,2,96,226.659,1.3411,place,outdoor,outdoor,1,0.6634,loc104,control,0.3411,214.659
1284,2,97,228.1607,1.3402,place,indoor,indoor,1,0.7969,loc104,control,0.3402,216.1607
1285,2,98,229.6609,1.3401,place,indoor,indoor,1,0.685,loc104,control,0.3401,217.6609
1287,2,100,241.7395,1.2624,place,indoor,indoor,1,0.9644,loc104,control,0.2624,229.7395
1288,2,101,243.2393,1.2619,place,outdoor,outdoor,1,0.7266,loc104,control,0.2619,231.2393
1289,2,102,244.7394,1.2609,place,indoor,indoor,1,0.8368,loc104,control,0.2609,232.7394
1290,2,103,246.1648,1.3361,place,indoor,indoor,1,0.7966,loc104,control,0.3361,234.1648
1291,2,104,247.6645,1.336,place,indoor,indoor,1,0.8306,loc104,control,0.336,235.6645
1292,2,105,249.1644,1.3369,place,indoor,indoor,1,0.8914,loc104,control,0.3369,237.1644
1293,2,106,250.666,1.3352,place,outdoor,outdoor,1,0.7594,loc104,control,0.3352,238.666
1294,2,107,252.1683,1.3329,place,outdoor,outdoor,1,0.7508,loc104,control,0.3329,240.1683
1295,2,108,253.6696,1.3313,place,outdoor,outdoor,1,0.7728,loc104,control,0.3313,241.6696
1296,2,109,255.1691,1.3314,place,outdoor,outdoor,1,0.8691,loc104,control,0.3314,243.1691
1298,2,111,267.2479,1.2531,object,manmade,manmade,1,1.1927,loc104,control,0.2531,255.2479
1299,2,112,268.7483,1.2528,object,manmade,manmade,1,0.8401,loc104,control,0.2528,256.7483
1300,2,113,270.2488,1.2522,object,natural,natural,1,0.7528,loc104,control,0.2522,258.2488
1301,2,114,271.6718,1.3283,object,natural,natural,1,0.6925,loc104,control,0.3283,259.6718
1302,2,115,273.1718,1.3284,object,natural,natural,1,0.607,loc104,control,0.3284,261.1718
1303,2,116,274.6713,1.33,object,natural,natural,1,0.7289,loc104,control,0.33,262.6713
1304,2,117,276.1732,1.327,object,manmade,manmade,1,0.8869,loc104,control,0.327,264.1732
